sl.no,rotationRate.x,rotationRate.y,rotationRate.z,userAcceleration.x,userAcceleration.y,userAcceleration.z,class
1,-2.191344,1.836105,-0.723019,-0.232847,-0.688916,0.381181,0
2,-2.363008,1.90448,-1.155867,-0.057052,-0.607515,0.339946,0
3,-2.559274,1.177604,-1.169257,0.08624,0.302249,-0.259253,0
4,-2.081134,-1.058971,-0.112989,0.024963,0.770023,-0.537816,0
5,-2.415788,-2.580961,0.902503,0.011223,0.471664,-0.478298,0
6,-2.323046,-2.045872,0.742231,-0.274712,-0.026926,-0.468334,0
7,-1.249245,-0.965344,0.526157,-0.381076,-0.086629,-0.465173,0
8,-0.232958,0.864321,0.564026,-0.398807,-0.165116,0.046977,0
9,0.908643,3.891206,0.264747,0.055991,-0.037187,0.717413,0
10,1.155505,3.62122,-0.097447,-0.003914,0.164662,0.504051,0
11,-1.176092,-1.48612,-0.371039,0.617103,0.61128,-0.168299,0
12,1.032621,-2.368456,-0.34914,0.616693,0.589572,0.729103,0
13,-0.954839,-1.16164,0.342594,0.347927,0.668144,0.119465,0
14,-0.209684,0.617911,0.360474,-0.040771,0.122977,0.23329,0
15,0.243474,2.572667,0.240425,-0.140757,-0.075635,0.282994,0
16,0.114113,1.830503,0.269315,-0.168518,-0.117028,0.172596,0
17,-0.070265,0.303063,0.121501,-0.215636,-0.261051,-0.198089,0
18,-0.152581,-0.344853,-0.016044,-0.172969,-0.305012,-0.131866,0
19,-0.053948,-0.111457,-0.126749,-0.13263,-0.283801,-0.101411,0
20,0.246177,0.677916,-0.121391,-0.20119,-0.406506,0.069287,0
21,0.529619,1.17072,-0.262116,-0.181012,-0.345921,-0.352976,0
22,0.514643,0.783579,-0.403799,-0.071891,-0.276574,-0.238028,0
23,0.57734,1.137405,-0.230762,0.01525,-0.228477,-0.012278,0
24,0.861193,1.14624,0.243363,0.088969,-0.232338,-0.026653,0
25,0.97399,0.177544,0.767753,0.231141,-0.281986,-0.119009,0
26,1.752664,-0.938806,0.877172,0.459185,-0.227363,0.009371,0
27,3.082124,-2.053972,0.213839,0.432482,0.230402,-0.30408,0
28,2.951559,-2.401046,-0.522633,-0.099522,0.565033,-0.088813,0
29,2.477381,-3.217533,-0.522762,-0.20196,0.817292,0.319741,0
30,2.169022,-3.332028,-0.394446,-0.174255,0.945768,0.343922,0
31,1.676848,-2.704847,-0.167952,-0.173927,0.517329,0.50723,0
32,1.197322,-0.64933,0.097393,-0.207716,0.18724,0.039718,0
33,0.461054,0.236614,0.294077,0.034259,0.005447,0.024787,0
34,-0.509487,1.119521,0.387647,-0.003672,-0.046747,0.167039,0
35,-1.164936,1.258219,0.370073,-0.059837,-0.197743,0.231959,0
36,-1.523071,1.166398,0.199978,-0.127299,-0.411272,0.276911,0
37,-1.831462,1.368788,-0.062013,-0.180876,-0.462823,0.268127,0
38,-2.163197,1.753756,-0.407723,-0.233845,-0.476152,0.258144,0
39,-2.424272,1.837482,-0.872194,-0.069508,-0.29829,0.058543,0
40,-2.361535,1.094702,-0.855849,-0.021552,-0.086104,-0.139479,0
41,-1.824979,-1.244275,-0.082121,0.002887,0.414801,-0.347947,0
42,-2.042674,-2.942201,0.607538,-0.050431,-0.042731,-0.278764,0
43,-2.368206,-2.902992,0.674648,-0.135627,-0.113129,-0.294317,0
44,-1.747215,-1.39817,0.506142,-0.270102,-0.082337,-0.208644,0
45,-0.984627,0.875855,0.462621,-0.359165,0.058825,-0.095119,0
46,-0.437241,1.827424,0.451338,-0.457214,0.117582,-0.283957,0
47,-0.128552,0.842496,0.337252,-0.515434,0.108046,-0.222442,0
48,1.354766,2.114336,-0.124034,0.030138,0.04304,0.591597,0
49,1.539977,2.171449,-0.447553,0.109126,0.125269,0.254583,0
50,-0.519754,-1.170027,-0.333745,0.672529,0.181035,-0.369582,0
51,0.235562,-1.867209,-0.066929,0.454618,0.351312,0.123061,0
52,-0.854453,-1.080204,0.403012,0.339004,0.261824,0.080428,0
53,-0.932127,0.629868,0.654388,0.129615,0.417652,0.08018,0
54,-0.601694,1.571247,0.71531,0.004529,0.583124,-0.540186,0
55,0.526795,1.429039,0.40184,-0.229553,0.182979,-0.128059,0
56,0.515339,1.657117,-0.147598,-0.239507,-0.182609,0.034952,0
57,0.547082,0.490104,-0.307182,-0.199646,-0.270328,-0.044304,0
58,0.122894,-0.765732,-0.236965,-0.016165,-0.357374,-0.131799,0
59,0.017405,-0.991023,-0.016292,0.093302,-0.238328,-0.223796,0
60,0.102247,0.182214,0.084279,0.017671,-0.302253,-0.057349,0
61,0.233184,1.118883,-0.101878,-0.066735,-0.38759,-0.043279,0
62,0.278673,1.06522,-0.307658,0.077181,-0.231634,-0.153286,0
63,0.354672,0.055757,0.054157,0.165997,-0.141028,-0.24354,0
64,0.260288,-0.946462,0.35068,0.254073,-0.086079,-0.273761,0
65,0.54807,-1.331684,0.265589,0.456122,-0.128946,-0.208414,0
66,1.207847,-1.640213,-0.139604,0.463422,0.068928,-0.109719,0
67,1.786802,-2.754997,0.017556,0.120009,0.295816,-0.00049,0
68,2.379507,-2.572031,-0.164409,-0.1627,0.403385,0.040324,0
69,2.371099,-2.64839,-0.508337,-0.24458,0.646165,0.151391,0
70,1.928188,-3.273822,-0.628134,-0.359701,0.822587,0.349763,0
71,1.550399,-2.656384,-0.461717,-0.236547,0.415775,0.381902,0
72,1.038338,-1.643646,0.066452,-0.25199,0.097718,0.260814,0
73,0.610959,-0.827243,0.069898,0.066924,0.058561,0.143526,0
74,0.112614,-0.186041,0.258943,0.133789,0.136747,0.219573,0
75,-0.464327,0.637071,0.312611,-0.105667,0.061571,0.175465,0
76,-0.790192,0.638741,0.177873,-0.177911,-0.323714,0.294405,0
77,-1.153645,0.704933,-0.075783,-0.190227,-0.557166,0.3388,0
78,-1.533285,0.66927,-0.152096,-0.169198,-0.586283,0.35004,0
79,-1.968862,0.676893,-0.082509,-0.087053,-0.435473,0.315407,0
80,-2.433026,0.602162,0.093805,-0.016429,-0.230631,0.2141,0
81,-3.019324,-0.057838,0.749649,-0.035533,0.255192,-0.101835,0
82,-3.21836,-1.389535,1.213573,-0.066964,0.316622,-0.351847,0
83,-3.099586,-3.681593,0.740913,-0.207186,0.194652,-0.681638,0
84,-2.083312,-4.073869,0.45689,-0.416314,-0.08224,-0.025457,0
85,-0.867417,-0.167283,0.413375,-0.427945,-0.140329,0.199518,0
86,-0.008364,2.66987,0.120911,-0.538303,-0.145005,-0.270438,0
87,0.303212,0.845725,-0.050832,-0.165505,-0.234136,0.31807,0
88,1.054619,1.860357,-0.291506,0.069962,-0.303526,0.558749,0
89,1.431239,3.108265,-0.468868,0.228988,0.040324,0.212591,0
90,-0.549225,0.29931,-0.128725,1.04112,0.761196,0.367984,0
91,0.273683,-1.233404,0.168475,0.578062,0.810382,0.258658,0
92,-0.983894,-0.505396,0.353174,0.234375,0.774934,-0.107024,0
93,-0.318335,1.552682,0.317798,0.246202,0.359636,-0.076331,0
94,-0.336293,2.163715,0.175885,0.196433,0.185529,0.010604,0
95,-0.376751,0.579445,-0.003966,0.0522,0.023332,-0.100928,0
96,-0.586537,-1.24141,-0.01378,-0.144614,-0.071649,0.003194,0
97,-0.614669,-0.940555,-0.100888,-0.18957,-0.165756,0.090802,0
98,-0.551498,0.184606,-0.212984,-0.236039,-0.342253,0.049127,0
99,-0.603691,0.839174,-0.290031,-0.055239,-0.411247,-0.145724,0
100,-0.584593,0.790207,-0.315472,-0.002883,-0.479905,-0.163581,0
101,-0.475895,0.950882,-0.364057,0.137888,-0.461471,0.10427,0
102,-0.191292,1.373896,-0.108496,0.202063,-0.332239,0.07823,0
103,-0.212597,1.112257,0.337139,0.254253,-0.217768,-0.035453,0
104,-0.545335,0.286274,0.191664,0.394837,-0.104078,-0.507291,0
105,-0.438608,-0.424825,-0.292721,0.3712,-0.030992,-0.299983,0
106,-0.378465,-0.964513,-0.446501,0.375879,0.064243,-0.343484,0
107,-0.196798,-1.410174,-0.243835,0.415715,-0.028146,-0.426224,0
108,0.390516,-1.819904,-0.054405,0.487157,0.107297,-0.259383,0
109,1.008343,-2.294843,0.165231,0.49198,0.151004,-0.199776,0
110,1.426691,-3.257967,0.363804,0.31228,0.380773,0.090483,0
111,1.554372,-3.338185,0.599808,0.035702,0.663409,0.377768,0
112,1.746219,-2.649807,0.38128,-0.040106,0.813937,0.381377,0
113,2.181032,-1.626625,-0.390387,-0.184572,0.923555,0.120793,0
114,2.001922,-0.807448,-1.028279,-0.177777,0.627397,0.031082,0
115,1.878136,-0.951012,-0.451052,-0.168615,0.583821,-0.005239,0
116,1.510628,-1.656373,-0.095929,0.031867,0.579142,0.136934,0
117,0.881236,-3.170595,0.033006,0.125907,0.203429,0.397561,0
118,0.925383,-2.608165,0.269739,0.206791,0.087677,0.399327,0
119,0.348279,-2.123439,0.496891,0.184513,-0.059813,0.29792,0
120,0.054574,-2.187309,0.739544,0.108613,-0.1385,0.26379,0
121,-0.015887,-2.654789,0.756743,-0.090585,-0.220225,0.304159,0
122,-0.152191,-2.779285,0.573284,-0.237677,-0.425017,0.317639,0
123,-0.288335,-2.6438,0.376675,-0.303699,-0.560119,0.40808,0
124,-0.377674,-2.269985,0.212134,-0.253582,-0.611649,0.450893,0
125,-0.451494,-1.948646,0.103316,-0.236186,-0.590878,0.40397,0
126,-0.790932,-1.760988,0.088954,-0.103366,-0.344835,0.151669,0
127,-0.94022,-1.714779,0.117762,0.004407,-0.19055,-0.059245,0
128,-0.673934,-1.941977,0.226736,0.069463,0.223756,-0.46634,0
129,-0.163664,-1.720783,0.146695,-0.090512,0.498827,-0.870399,0
130,0.659756,-1.358008,0.08682,-0.053621,0.451325,-0.798234,0
131,0.679359,-0.211102,0.434796,0.147786,0.200488,-0.43007,0
132,0.174527,-0.036579,0.6511,-0.104539,-0.044738,-0.233842,0
133,-0.044745,-0.340607,0.946924,-0.279536,-0.243928,-0.092262,0
134,-0.154507,0.13606,0.919909,-0.134792,0.005249,0.014915,0
135,-0.921841,2.117144,0.336239,-0.281141,1.141928,0.285831,0
136,0.174634,1.083471,-1.588259,-0.565546,1.592747,-0.230052,0
137,1.563588,-0.883348,-1.380553,-0.152025,-0.017027,0.399069,0
138,-0.168322,1.058984,-1.028739,0.461647,-0.806944,0.684237,0
139,-1.211592,1.849676,-0.987901,0.570766,-0.619312,0.648357,0
140,-0.947535,3.234363,-0.907714,0.983777,-0.009906,0.551167,0
141,-0.624152,1.008665,-0.305467,0.675433,0.674179,0.223942,0
142,-1.365066,-1.423632,0.935884,0.387132,0.637452,0.083644,0
143,-2.343527,-1.309782,1.550609,0.157996,0.194335,0.226129,0
144,-2.414717,-0.978351,1.579597,-0.07237,-0.068761,0.041846,0
145,-2.27401,-0.28878,1.107542,-0.111829,-0.079684,0.042162,0
146,-1.988597,0.091405,0.890063,-0.016013,-0.102059,-0.037318,0
147,-1.802321,0.079656,0.736487,-0.007136,-0.120605,-0.050525,0
148,-1.74052,-0.088267,0.585447,-0.033616,-0.180475,-0.082152,0
149,-1.781101,-0.071294,0.372565,-0.030951,-0.176714,-0.162002,0
150,-1.540292,-0.461794,0.050008,0.061521,-0.157177,-0.115963,0
151,-1.244144,-0.553515,-0.17961,0.119982,-0.068256,-0.112382,0
152,-1.335176,-0.651178,-0.19092,0.194498,-0.024276,-0.202025,0
153,-1.407142,-1.058676,-0.253925,0.204626,-0.035426,-0.241011,0
154,-1.269145,-1.312298,-0.351981,0.216743,-0.011965,-0.279827,0
155,-0.904312,-1.019923,-0.523927,0.193942,0.079526,-0.187643,0
156,-0.497656,-0.538644,-0.55375,0.200928,0.145523,-0.20772,0
157,-0.293499,-0.626967,-0.488118,0.236531,0.204447,-0.233904,0
158,-0.154181,-1.109324,-0.395728,0.174026,0.373942,-0.35335,0
159,0.109665,-1.453498,-0.33576,0.204617,0.245976,-0.38957,0
160,0.692352,-1.780993,-0.460525,0.280928,0.19812,-0.412768,0
161,1.410233,-2.134689,-0.543719,0.401544,0.077068,-0.393905,0
162,2.364273,-2.922494,-0.430292,0.510051,-0.015104,-0.211141,0
163,2.884173,-2.673503,-0.011441,0.609538,0.052795,-0.080826,0
164,3.092298,-2.574419,0.071071,0.713609,0.310458,0.269894,0
165,2.394487,-2.910188,0.4608,0.635113,0.210809,0.633158,0
166,2.706509,-1.380568,0.219602,0.422031,0.250614,0.710116,0
167,3.213822,-0.81666,-0.047837,0.249312,0.7002,-0.13624,0
168,2.162884,-1.182177,-0.170078,0.316544,0.633683,0.454851,0
169,2.093849,-2.459405,0.146202,0.327599,0.644995,0.496593,0
170,1.921371,-3.729867,0.458546,0.266272,0.152995,0.324541,0
171,1.498143,-3.399194,0.715812,0.235237,-0.007402,0.344815,0
172,1.02574,-3.766143,1.248162,0.326729,-0.090533,0.482046,0
173,0.511808,-3.870918,1.787363,0.368144,-0.206275,0.489745,0
174,0.115495,-4.141384,2.102203,0.272658,-0.387254,0.578188,0
175,-0.065575,-3.996408,1.702306,0.129559,-0.509306,0.653845,0
176,-0.471778,-3.466802,1.214885,0.054153,-0.442442,0.589017,0
177,-0.639629,-2.750899,0.818622,-0.161993,-0.251471,0.518047,0
178,-0.694829,-1.783259,0.774267,-0.209118,-0.20207,0.441093,0
179,-0.715217,-1.17036,0.7007,-0.22258,-0.134812,0.346014,0
180,-0.771805,-0.723737,0.681573,-0.294672,-0.183042,0.26409,0
181,-0.957729,-0.638575,0.591503,-0.303377,-0.179533,0.174411,0
182,-1.263614,-0.981951,0.41355,-0.126805,-0.135687,0.046933,0
183,-1.321414,-0.845158,0.354218,0.031603,0.18267,-0.449158,0
184,-0.842224,-1.231609,0.410404,0.177806,0.336796,-0.672537,0
185,0.112742,-1.559283,0.540339,0.53827,0.651494,-0.929499,0
186,0.969159,-0.220788,1.001805,0.300841,0.119025,-0.487641,0
187,0.558405,-0.209705,1.249954,0.197796,-0.126179,-0.446408,0
188,0.003575,-0.640492,1.302178,0.259662,-0.286109,-0.19595,0
189,-0.449392,-0.174006,1.18839,0.330655,-0.008013,0.070451,0
190,-0.567057,1.922425,0.500151,-0.120416,1.166989,0.641434,0
191,1.60007,-1.389853,-0.49421,-0.685127,0.375735,-0.102567,0
192,0.642314,-0.810342,-0.463186,-0.647584,-0.450718,0.539807,0
193,-0.216746,0.005803,-0.553554,0.02885,-0.615414,0.761993,0
194,-0.622151,1.133136,-1.334428,0.408615,-0.075748,1.015157,0
195,-0.616907,1.3309,-2.308863,0.429611,0.021594,0.941999,0
196,-1.687704,0.575914,-1.721444,0.687144,1.018903,0.446345,0
197,-1.470382,-0.469752,0.642185,0.695331,0.524482,-0.333381,0
198,-1.565682,-0.760228,0.904674,0.440274,0.170949,-0.101237,0
199,-1.68366,-0.478145,1.326504,0.143726,-0.102786,0.347282,0
200,-1.715146,0.007198,1.45919,0.007184,-0.156467,0.268705,0
201,-2.096928,0.572798,1.273133,-0.04302,-0.170408,0.194686,0
202,-2.406111,0.20159,0.860075,-0.178758,-0.189064,-0.042871,0
203,-2.164328,-1.013068,0.445646,-0.247967,-0.15644,-0.201446,0
204,-1.63316,-1.318487,0.173078,-0.126266,-0.157071,-0.068186,0
205,-1.458882,-0.31241,-0.091913,-0.021412,-0.177754,-0.080959,0
206,-1.346146,0.880919,-0.244342,0.202919,-0.068176,-0.004946,0
207,-1.333708,1.196511,-0.32264,0.216386,-0.010954,-0.211751,0
208,-1.760152,0.10492,-0.298582,0.380061,-0.001513,-0.625219,0
209,-1.093371,-1.679031,-0.174135,0.394295,0.051961,-0.427625,0
210,-0.148431,-1.070729,-0.201428,0.175876,0.324892,-0.366006,0
211,0.518106,-1.01822,-0.323958,0.225222,0.388276,-0.545175,0
212,0.978892,-1.198058,-0.239324,0.344694,0.391353,-0.343806,0
213,1.174025,-0.898677,-0.151819,0.333935,0.313094,-0.179507,0
214,1.804102,-1.173839,-0.085109,0.233258,0.235866,-0.230529,0
215,3.11,-2.158063,0.357904,0.272277,0.024982,-0.230123,0
216,3.548615,-1.95386,0.060536,0.100386,0.367759,0.099089,0
217,3.276884,-2.755478,-0.103773,0.023487,0.283303,0.449354,0
218,3.001037,-2.872927,-0.329876,-0.016851,0.139467,1.088598,0
219,3.624993,-1.318676,-0.87337,0.031152,0.446254,0.388014,0
220,3.452641,-3.734474,-0.786021,0.196203,0.909688,0.366624,0
221,2.922359,-2.067218,0.180221,0.30612,0.817707,0.297636,0
222,2.422748,-0.538239,1.067805,0.219377,0.453296,0.214611,0
223,1.84849,-0.946661,1.669999,0.09129,0.051782,0.393073,0
224,1.499349,-2.21081,1.889234,0.112602,-0.317771,0.435065,0
225,0.881648,-2.28302,1.568818,0.14013,-0.832025,0.319776,0
226,0.173826,-1.74148,1.02266,0.113413,-0.819115,0.343974,0
227,-0.416798,-1.156879,0.794527,-0.00626,-0.642672,0.457097,0
228,-1.024862,-0.765541,0.693638,-0.102129,-0.543665,0.487673,0
229,-1.527573,-0.139375,0.650868,-0.14263,-0.502895,0.492102,0
230,-1.882978,0.528677,0.395429,-0.197889,-0.437538,0.550828,0
231,-2.094573,1.173753,0.166661,-0.096215,-0.437103,0.396672,0
232,-2.164221,1.374038,-0.042385,-0.03842,-0.418382,0.241698,0
233,-1.955989,1.003303,-0.21778,0.021721,-0.310308,0.016111,0
234,-2.025105,0.644069,-0.631205,-0.065503,-0.221114,0.07974,0
235,-2.069968,0.598445,-0.903856,-0.034872,-0.123938,0.144634,0
236,-1.49057,0.341018,-0.699722,-0.025833,0.150621,0.16509,0
237,-0.949233,-0.217917,0.078169,-0.035264,0.288753,0.186183,0
238,-1.546555,-0.357461,0.859318,-0.020351,0.257321,0.05822,0
239,-2.135974,-0.172412,0.914784,-0.273253,0.287433,-0.426938,0
240,-1.759136,-1.253184,0.733999,-0.503481,0.321161,-0.636468,0
241,-0.585527,-1.421797,0.324738,-0.405569,-0.210011,-0.249275,0
242,0.43907,0.883703,0.175117,0.16217,-0.282518,0.366385,0
243,1.521035,3.722986,-0.576197,0.290403,-0.145318,0.732499,0
244,1.517404,3.248782,-0.00198,0.637341,0.514906,-0.359521,0
245,-1.121465,-0.852946,0.258309,0.480927,0.364631,0.493814,0
246,0.841553,-1.268083,0.340919,0.046133,0.372639,0.301354,0
247,-0.31433,-0.121138,0.632614,-0.017154,0.301396,0.078238,0
248,0.182664,0.946035,0.792815,0.154985,0.629115,-0.348376,0
249,0.909148,2.125817,0.565641,-0.131654,0.253341,0.040634,0
250,0.947152,1.85455,-0.093907,-0.239791,-0.054151,0.140066,0
251,0.799643,0.608571,-0.330486,-0.04419,-0.208176,-0.122139,0
252,0.429203,-0.288747,-0.458076,0.040864,-0.158566,-0.162356,0
253,0.322955,0.072647,-0.432576,0.117009,-0.166631,0.051252,0
254,0.235769,0.700052,-0.346395,0.14009,-0.273468,0.153798,0
255,0.216086,0.820647,-0.118087,0.192162,-0.26253,-0.050903,0
256,0.205188,0.353857,-0.058813,0.280005,-0.224325,-0.137051,0
257,0.682302,-0.107867,-0.091208,0.408071,-0.100638,-0.189873,0
258,1.44046,-0.375998,-0.028953,0.523918,-0.065189,-0.14111,0
259,2.317954,-1.145258,0.042255,0.410652,0.191685,-0.194,0
260,2.713922,-2.438255,-0.096464,0.088521,0.530114,0.003381,0
261,2.836725,-3.752621,-0.248814,-0.249469,0.530906,0.319879,0
262,2.507827,-3.603312,-0.272667,-0.245665,0.548878,0.456747,0
263,1.671653,-2.611642,-0.055452,-0.170556,0.569146,0.407342,0
264,1.348119,-1.627641,0.037167,-0.22441,0.070684,0.157273,0
265,0.962509,-0.769752,0.285475,-0.069924,-0.09302,0.297377,0
266,0.123587,0.422752,0.364613,0.149376,-0.317089,0.447526,0
267,-0.701668,1.749558,0.146708,-0.09415,-0.16117,0.228822,0
268,-1.32916,1.673079,0.102899,-0.108081,-0.206239,0.154449,0
269,-1.718075,1.230532,0.021701,-0.070346,-0.356104,0.185041,0
270,-2.286473,1.14573,-0.123166,-0.129407,-0.437017,0.203342,0
271,-2.806285,1.262755,-0.432458,-0.12567,-0.418786,0.175085,0
272,-3.006659,1.229679,-0.511796,0.007124,-0.277968,0.016109,0
273,-2.249424,0.205728,-0.047995,0.030435,0.463977,-0.416562,0
274,-2.002828,-1.04399,0.573829,0.01518,0.531652,-0.456069,0
275,-2.494541,-1.218081,0.846219,-0.046173,0.192468,-0.236637,0
276,-2.049974,-0.903003,0.522045,-0.317307,-0.064934,-0.159863,0
277,-0.997068,-0.537749,0.442405,-0.393352,-0.11521,-0.137971,0
278,0.200558,-0.113918,0.506843,-0.406674,-0.340085,-0.017212,0
279,0.831152,1.603807,-0.163933,0.14767,-0.265549,0.72546,0
280,1.077212,2.896374,-0.207668,0.275578,0.40376,-0.03094,0
281,-0.471563,0.841622,0.027702,0.605745,0.542617,0.498529,0
282,1.076259,-0.194821,0.000317,0.280198,0.309359,0.530457,0
283,-0.267324,-1.054659,0.405436,0.261479,0.146154,0.471202,0
284,-1.001535,-0.282318,0.505072,0.302546,0.570825,-0.590784,0
285,0.213385,1.364554,0.794526,0.110431,0.65204,-0.15387,0
286,0.521262,3.273809,0.191753,-0.200969,0.17914,0.139359,0
287,0.722473,1.903407,-0.134098,-0.176057,-0.298851,-0.139015,0
288,0.354774,-0.020999,-0.484577,-0.060979,-0.326382,0.024431,0
289,0.064907,-0.584889,-0.410035,0.062746,-0.310796,-0.084683,0
290,0.168841,-0.058704,-0.218772,0.116664,-0.188571,-0.010307,0
291,0.285852,1.088041,-0.180968,0.089935,-0.197721,-0.015085,0
292,0.410641,1.154419,-0.105406,0.069422,-0.221096,-0.01481,0
293,0.257807,0.333929,0.083653,0.209117,-0.210262,-0.062446,0
294,0.741572,-0.701161,0.373574,0.495201,-0.11031,-0.118403,0
295,1.347461,-0.597367,0.26551,0.599718,-0.090986,-0.136662,0
296,2.182424,-1.141636,0.053054,0.268357,0.135372,-0.149142,0
297,2.379715,-2.082117,-0.156939,-0.14801,0.316041,0.037666,0
298,2.423704,-3.190472,-0.610274,-0.26209,0.40314,0.253361,0
299,2.416249,-3.308097,-0.492671,-0.167164,0.755771,0.351723,0
300,1.697622,-2.634749,-0.159927,-0.060484,0.63241,0.466505,0
301,1.247328,-1.430503,0.10885,-0.259979,0.259283,0.290674,0
302,1.075023,-0.633896,0.312792,-0.052006,-0.088286,0.216588,0
303,0.378396,0.521402,0.512508,0.192803,-0.137641,0.316201,0
304,-0.533578,1.624477,0.375469,0.103954,-0.105156,0.277148,0
305,-1.184316,1.535548,0.268489,-0.086693,-0.084291,0.193581,0
306,-1.627267,1.154001,0.164402,-0.17101,-0.335165,0.222359,0
307,-1.983293,1.034564,-0.028075,-0.202894,-0.415847,0.201574,0
308,-2.294143,1.124206,-0.330531,-0.174462,-0.490034,0.173776,0
309,-2.763726,1.210364,-0.68964,-0.02676,-0.426077,0.081132,0
310,-2.773215,1.064188,-0.623289,0.069655,-0.138599,-0.055928,0
311,-1.827865,-0.519993,-0.082681,0.037732,0.499981,-0.387533,0
312,-2.297193,-2.326083,0.701498,0.051059,0.353476,-0.338628,0
313,-2.444554,-1.873919,0.707367,-0.058732,0.062638,-0.227114,0
314,-1.391949,-0.593831,0.421454,-0.310419,-0.07912,-0.263248,0
315,-0.332391,0.5575,0.360082,-0.514577,-0.293494,-0.299017,0
316,0.797943,1.591245,0.338879,-0.183639,-0.392309,0.496821,0
317,2.280138,3.477033,-0.20866,0.025905,-0.28352,0.853912,0
318,1.424111,2.296129,-0.121259,0.581921,0.766377,-1.192368,0
319,-1.935985,-2.545587,-0.128911,0.704424,0.505112,0.049291,0
320,0.843987,-2.334965,-0.065965,0.652012,0.335932,0.108692,0
321,-0.72391,0.970555,0.767015,0.332204,0.820991,-0.501625,0
322,0.345202,2.251252,0.846549,0.415426,1.338269,-1.223258,0
323,1.181621,2.596963,0.248403,-0.254093,-0.461289,0.200926,0
324,0.673538,2.265245,-0.27174,-0.168671,-0.481988,0.034508,0
325,0.203898,0.037441,-0.319167,-0.072745,-0.358321,0.035624,0
326,-0.323962,-1.116343,-0.105595,0.22619,0.089844,-0.199015,0
327,-0.066442,0.033873,0.007961,0.256893,0.082498,-0.145986,0
328,0.099457,1.446373,-0.121945,0.161341,-0.115603,-0.101324,0
329,0.18531,1.006424,-0.198762,0.033586,-0.30561,-0.093454,0
330,0.202309,0.058201,-0.181404,0.046681,-0.306614,-0.145993,0
331,0.430014,-0.917759,-0.070673,0.231907,-0.091493,-0.1803,0
332,0.962173,-1.351413,0.022262,0.498883,-0.140314,-0.194563,0
333,1.629964,-1.171421,-0.013896,0.388143,-0.098547,-0.122185,0
334,2.203956,-1.703694,-0.070093,0.228095,-0.01346,0.050302,0
335,2.841839,-2.564146,-0.428799,-0.153859,0.234095,0.138628,0
336,2.64268,-3.924927,-0.682683,-0.169062,0.408959,0.384966,0
337,2.290426,-3.377557,-0.332263,-0.273451,0.655622,0.376811,0
338,1.871893,-2.231995,-0.067463,-0.162187,0.582748,0.437966,0
339,1.544391,-1.947541,0.209759,-0.167634,0.15214,0.376163,0
340,1.142005,-0.482764,0.286256,-0.027575,0.017602,0.24915,0
341,0.447943,1.250872,0.24714,0.033386,0.061949,0.090115,0
342,-0.314109,1.626512,0.209289,-0.013952,-0.100872,0.118189,0
343,-1.11806,1.548147,0.257185,-0.026973,-0.322757,0.175731,0
344,-1.797213,1.327149,0.168335,-0.083216,-0.351682,0.198596,0
345,-2.259891,1.226152,-0.014229,-0.124976,-0.37679,0.197208,0
346,-2.702332,1.36144,-0.428758,-0.101543,-0.375388,0.121855,0
347,-3.234016,1.585437,-0.838684,-0.075571,-0.238921,-0.05728,0
348,-3.154888,1.309788,-0.439331,-0.007958,0.295294,-0.362008,0
349,-2.246793,-0.673859,0.396358,0.102104,0.730904,-0.419917,0
350,-2.385786,-1.989692,0.571193,0.111022,0.054693,-0.158638,0
351,-1.865627,-1.828753,0.366317,-0.257163,-0.461356,-0.139608,0
352,-0.659733,-1.184609,0.47326,-0.345146,-0.589203,-0.087192,0
353,0.724787,0.280161,0.596327,-0.224118,-0.748677,0.508365,0
354,1.116996,2.714254,0.272277,0.022476,-0.502,0.405386,0
355,0.724552,2.556728,0.312466,0.05004,-0.128655,0.095433,0
356,-2.212726,0.11475,0.020545,0.41437,1.22092,-0.385308,0
357,1.306718,-1.415203,0.220141,0.416092,0.549803,0.116832,0
358,0.486239,0.791393,0.295972,0.192977,0.192138,0.48563,0
359,0.245906,1.067618,0.158275,-0.045781,-0.141847,0.353398,0
360,-0.633291,0.479948,0.297097,0.266436,0.465366,-0.418233,0
361,0.251744,1.045985,0.501243,0.246751,0.523165,-0.293089,0
362,0.638881,2.514082,-0.136731,-0.1214,-0.056569,0.075652,0
363,0.706473,1.392079,-0.394399,0.000653,-0.345441,-0.274071,0
364,0.283089,-0.029512,-0.431854,0.109499,-0.24286,-0.189545,0
365,0.257547,-0.225434,-0.165794,0.208812,-0.108353,-0.100985,0
366,0.412469,0.374646,0.149644,0.190103,-0.19471,-0.068642,0
367,0.681817,0.362479,0.028696,0.210897,-0.216197,0.022774,0
368,1.206453,-0.385145,0.056819,0.312725,-0.223736,-0.124521,0
369,1.760045,-0.912157,0.034656,0.315366,-0.216531,-0.092539,0
370,2.499334,-1.873494,0.041052,0.28445,0.120646,-0.080181,0
371,2.665336,-2.891631,-0.16906,0.056704,0.352523,0.042591,0
372,2.546453,-3.850448,-0.315008,-0.063007,0.649185,0.278415,0
373,2.184134,-3.336456,-0.133395,-0.045783,0.749043,0.396565,0
374,1.614893,-2.111152,0.03411,-0.0403,0.718837,0.529998,0
375,1.283237,-0.912433,0.250311,-0.357407,0.007148,0.173746,0
376,0.804963,-0.692588,0.299032,-0.160877,-0.080224,0.258256,0
377,0.051757,0.758719,0.318616,0.123377,-0.142312,0.362825,0
378,-0.744001,1.443507,0.255565,-0.115248,-0.083039,0.199647,0
379,-1.312878,1.305229,0.164174,-0.128381,-0.203609,0.181561,0
380,-1.836343,1.154599,-0.074298,-0.110342,-0.472879,0.262697,0
381,-2.186152,1.160065,-0.338463,-0.110544,-0.501939,0.234135,0
382,-2.62668,1.200721,-0.798791,-0.04197,-0.445751,0.217007,0
383,-2.910735,1.435737,-0.982674,0.07513,-0.092188,0.030499,0
384,-2.36116,0.830885,-0.184371,0.103714,0.73684,-0.47048,0
385,-2.565416,-1.418758,1.001743,0.143195,0.700057,-0.547552,0
386,-2.766254,-2.12895,0.822857,0.01105,-0.0431,-0.347546,0
387,-2.05964,-1.789789,0.376568,-0.116649,-0.139843,-0.358469,0
388,-1.118721,-0.434634,0.329061,-0.299543,-0.170682,-0.16384,0
389,-0.029481,1.320868,0.201961,-0.417466,-0.350679,0.426073,0
390,0.552203,3.345651,0.041059,-0.372343,-0.43246,0.534395,0
391,1.092109,3.958884,-0.069187,-0.191111,-0.316925,0.385888,0
392,0.879073,0.744384,-0.275927,0.063649,0.299745,-0.74357,0
393,-0.961673,-4.279599,-0.242823,0.766455,0.796581,-0.239772,0
394,0.919344,-1.300524,0.115807,0.976072,0.83838,0.16798,0
395,0.111416,2.109608,0.503173,0.251204,0.484137,0.170696,0
396,0.264838,2.45774,0.423682,0.039345,0.43832,-0.227858,0
397,0.488745,1.637962,0.109034,-0.015063,0.129007,-0.053246,0
398,0.193855,1.163273,-0.273773,-0.077227,-0.102198,0.091222,0
399,0.069884,0.141144,-0.300034,-0.020864,-0.23338,0.11403,0
400,-0.097073,-0.236242,-0.086004,0.050641,-0.186625,-0.021974,0
401,-0.173648,-0.001279,0.095826,0.129287,-0.054933,-0.179284,0
402,0.158639,1.069134,0.118048,0.078257,-0.182119,-0.100326,0
403,0.401517,1.629962,0.050659,0.054698,-0.287465,-0.224592,0
404,0.69915,1.371188,0.037047,0.052533,-0.29395,-0.145911,0
405,0.701815,0.40244,0.137651,0.180113,-0.242323,-0.082858,0
406,0.85421,-0.898377,0.300616,0.262061,-0.237962,-0.033485,0
407,1.62149,-1.409938,0.225446,0.503559,-0.188988,-0.117337,0
408,2.17225,-1.606856,-0.024691,0.529521,-0.021866,-0.105178,0
409,2.850487,-2.31271,-0.185692,0.15003,0.336185,-0.038752,0
410,2.777347,-3.122312,-0.390264,-0.009145,0.499033,0.140091,0
411,2.583577,-3.909168,-0.31797,-0.051918,0.76949,0.426797,0
412,2.040917,-3.045622,-0.016288,-0.06964,0.684779,0.481104,0
413,1.60031,-2.429864,0.357996,-0.080199,0.110267,0.353991,0
414,0.941542,-1.09181,0.379454,-0.107304,0.147649,0.07389,0
415,0.44782,0.653652,0.405815,-0.048639,0.139197,-0.04263,0
416,-0.226787,0.799994,0.624174,-3.70E-05,-0.135418,0.146612,0
417,-1.147375,1.386647,0.701381,-0.075436,-0.294963,0.431675,0
418,-1.733691,1.579976,0.548555,-0.10866,-0.321797,0.43471,0
419,-1.940402,1.627507,0.297087,-0.142636,-0.398912,0.338424,0
420,-1.974012,1.596158,-0.091941,-0.113247,-0.439988,0.137614,0
421,-2.430507,1.268842,-0.691846,-0.105008,-0.40713,0.081562,0
422,-3.038647,0.698,-1.265793,-0.055318,-0.228015,0.002764,0
423,-2.478692,-0.315632,-0.814066,-0.08556,0.856711,-0.378755,0
424,-1.381232,-2.411825,0.030567,-0.060449,0.66853,-0.366838,0
425,-1.800077,-2.435222,0.38339,-0.074788,-0.012862,-0.306343,0
426,-1.995312,-0.802417,0.35216,-0.148512,-0.158251,-0.06046,0
427,-1.320724,0.910401,0.336517,-0.221598,-0.249579,-0.125478,0
428,-0.424917,0.93783,0.692048,-0.254661,-0.321891,-0.081686,0
429,0.748698,1.561465,0.361888,0.089983,-0.177537,0.626575,0
430,1.320487,2.611284,0.00241,0.074495,0.11402,0.500348,0
431,-0.129881,1.101446,0.013442,0.797801,0.428582,-0.072891,0
432,-0.849732,-1.658393,0.032246,0.580901,0.226384,0.216672,0
433,0.131141,-1.564889,0.041114,0.444509,0.081208,0.404814,0
434,-1.226695,-0.178795,0.641945,0.353596,1.752799,-1.223126,0
435,-0.27785,0.442854,0.470451,0.061037,0.181641,0.235231,0
436,0.964982,2.500907,-0.058684,-0.200585,-0.217567,0.664081,0
437,0.220423,1.60007,-0.042434,-0.006924,-0.254647,0.079654,0
438,-0.331337,-0.19369,-0.137993,0.024725,-0.299806,-0.025925,0
439,-0.505208,-1.31081,-0.07582,0.124818,-0.244477,-0.180861,0
440,-0.157385,-0.429575,0.092123,-0.043093,-0.377414,0.038816,0
441,0.166455,1.20936,-0.057266,-0.017017,-0.41187,-0.115817,0
442,0.491152,1.480065,-0.103415,-0.026688,-0.366897,-0.339843,0
443,0.471994,1.079222,-0.278223,-0.018101,-0.369558,0.00688,0
444,0.75361,0.825796,-0.283409,0.183853,-0.303912,-0.131613,0
445,0.635672,0.106763,0.077748,0.292214,-0.253361,-0.190351,0
446,0.612231,-0.682079,0.232419,0.530341,-0.197605,-0.029201,0
447,0.876623,-1.042743,0.153543,0.634599,-0.191896,-0.20014,0
448,1.367575,-1.404917,-0.010275,0.369494,-0.080359,-0.128718,0
449,1.887032,-2.193655,0.180235,0.180544,0.232859,-0.066739,0
450,2.403509,-3.232582,0.069806,-0.04459,0.419366,-0.126567,0
451,2.33284,-3.796908,-0.202361,-0.062176,0.774151,0.231817,0
452,1.988836,-3.513006,-0.044974,-0.023413,0.955505,0.351312,0
453,1.343487,-2.336456,0.392323,0.065056,0.57087,0.300941,0
454,1.043396,-2.216844,0.577012,-0.06707,0.22406,0.333776,0
455,0.798777,-1.161001,0.750207,0.051152,0.165645,-0.021618,0
456,0.029067,-0.089813,0.738117,0.037056,0.245211,-0.139831,0
457,-0.74676,0.292434,0.924488,-0.075224,0.004787,0.018359,0
458,-1.231955,0.474594,0.812975,-0.117159,-0.22344,0.233651,0
459,-1.566873,0.281669,0.598306,-0.104531,-0.281926,0.400053,0
460,-1.715946,0.058575,0.308063,-0.092348,-0.405699,0.446754,0
461,-1.706271,0.390374,-0.090742,-0.130044,-0.451387,0.310827,0
462,-1.663628,0.585094,-0.60344,-0.204442,-0.395179,0.206215,0
463,-1.640472,0.415925,-0.941688,-0.133453,-0.341112,0.129829,0
464,-1.724929,0.262327,-0.819235,-0.010691,-0.018406,0.056457,0
465,-1.469781,-0.764704,-0.215796,0.042799,0.143061,0.075882,0
466,-1.512569,-1.472752,0.529363,0.04972,0.035333,-0.007735,0
467,-1.439991,-1.725387,0.507761,-0.108111,-0.076633,-0.576929,0
468,-1.164916,-3.247331,0.451812,-0.137841,-0.047379,-0.456077,0
469,-0.976249,-1.58631,0.490526,-0.08859,-0.057598,-0.121071,0
470,-0.343662,2.346846,0.169438,-0.130284,-0.062491,-0.030407,0
471,-0.12836,3.124361,0.283177,-0.224829,0.21445,-0.70571,0
472,-0.349083,0.936416,0.441467,-0.258532,0.284932,-0.63366,0
473,0.136494,-0.341094,0.082233,-0.20768,0.138788,-0.021527,0
474,0.87215,1.027022,-0.098116,0.098475,0.055888,0.561311,0
475,0.981828,0.726298,-0.114056,0.108752,0.101682,0.629508,0
476,0.415989,-0.311649,-0.59631,0.615413,0.528745,0.086078,0
477,-0.087555,-0.319425,-0.612636,0.776525,0.671313,0.142369,0
478,-1.973811,-0.545013,-0.372354,0.7656,0.628252,0.379859,0
479,-1.787106,-1.092595,0.271653,0.440557,0.634625,0.019165,0
480,-1.884719,0.024075,0.556892,0.341495,0.761778,-0.277525,0
481,-1.150004,0.600173,0.506807,0.225936,0.544644,-0.012912,0
482,-1.049441,1.221599,0.593239,0.030221,-0.06069,0.274109,0
483,-1.216529,1.97129,0.5377,-0.097197,-0.279757,0.107128,0
484,-1.553169,1.807386,0.259957,-0.183946,-0.372455,0.047425,0
485,-1.416459,1.005252,0.136958,-0.262313,-0.479202,-0.088616,0
486,-1.366645,0.274924,-0.284774,-0.099946,-0.423366,-0.192256,0
487,-1.187606,-0.371917,-0.651231,0.213281,-0.315242,-0.461851,0
488,-0.944643,-0.999853,-0.739528,0.371301,-0.286402,-0.408139,0
489,-0.719414,-0.355768,-0.832784,0.371988,-0.206856,-0.228382,0
490,-0.468222,0.187858,-0.868046,0.284185,-0.084817,-0.197053,0
491,-0.503711,-0.241758,-0.759852,0.343939,0.084753,-0.20882,0
492,-0.533009,-1.232637,-0.691489,0.421592,0.423037,-0.403204,0
493,-0.305162,-1.969855,-0.610973,0.284812,0.492757,-0.287575,0
494,-0.054422,-0.928176,-0.521894,0.32273,0.349155,-0.345576,0
495,0.187854,-1.046597,-0.421774,0.41567,0.284589,-0.309723,0
496,0.578336,-1.448794,-0.34696,0.587139,0.371431,-0.121335,0
497,1.146078,-1.489556,0.295855,0.622348,0.510562,-0.014373,0
498,1.506492,-2.465389,0.792073,0.613484,0.476747,-0.149864,0
499,1.680334,-3.953138,0.265356,0.063109,0.009367,-0.252961,0
500,2.568383,-4.621007,-0.252082,-0.207405,-0.25716,0.012462,0
501,3.006217,-3.224414,-0.369386,-0.044145,-0.036148,0.383667,0
502,3.1173,-0.192477,0.025951,0.245424,0.319318,0.371262,0
503,3.206855,1.714043,0.29324,0.365846,0.536345,0.179487,0
504,3.057629,0.454649,-0.050156,0.233644,0.461314,0.149548,0
505,2.126711,-3.132617,-0.187726,0.241805,0.325203,0.389994,0
506,1.535435,-5.509174,0.571763,0.467444,0.100845,0.284181,0
507,1.840748,-4.861471,1.899798,0.680068,0.010423,0.281049,0
508,1.359977,-2.350938,2.662342,0.492631,-0.06263,0.271222,0
509,0.815971,-3.217588,2.480191,0.190874,-0.289836,0.436525,0
510,0.555917,-4.786078,2.274218,0.076776,-0.590689,0.542179,0
511,0.098932,-4.057506,1.890874,0.025514,-0.611421,0.522782,0
512,-0.398978,-2.794824,1.17541,-0.235834,-0.382128,0.473873,0
513,-0.700297,-1.982001,0.899867,-0.161222,-0.177292,0.354958,0
514,-0.829127,-1.319579,0.790228,-0.175617,-0.122129,0.334161,0
515,-0.923307,-0.841328,0.620178,-0.244787,-0.166258,0.259205,0
516,-1.180838,-0.67338,0.402383,-0.130193,-0.308532,0.079343,0
517,-1.55967,-0.904501,0.187457,-0.06664,-0.293855,-0.00888,0
518,-1.976945,-0.873562,0.005042,0.044332,-0.163578,-0.229735,0
519,-2.157712,-0.730221,0.013209,0.068403,-0.053925,-0.405487,0
520,-1.621862,-1.125144,0.273832,0.27171,0.356294,-0.760393,0
521,-0.587813,-1.515574,0.311465,0.437085,0.426987,-0.572881,0
522,0.095027,-1.075479,0.750437,0.054945,-0.131013,-0.271102,0
523,0.061947,-0.790069,0.800047,-0.063039,-0.325805,-0.271766,0
524,0.011284,-0.62601,0.842211,0.156485,0.245177,0.509324,0
525,-0.793933,1.05881,0.320613,-0.106259,1.096252,0.134608,0
526,0.76436,-0.858696,-1.025891,-0.146844,1.5258,-0.504583,0
527,1.083489,-0.678149,-0.632924,-0.00117,-0.637099,0.934186,0
528,-0.025517,0.03155,-0.527281,0.042336,-0.807939,0.794961,0
529,-0.714962,0.039992,-0.708364,0.307997,-0.436565,0.733146,0
530,-1.001429,0.660319,-1.874453,0.543448,-0.059381,0.69115,0
531,-1.198125,-0.224003,-2.200502,0.517071,0.863726,0.546919,0
532,-2.043532,-2.513272,0.12525,0.627496,1.234253,0.212924,0
533,-2.010522,-3.360204,1.436206,0.270697,-0.123835,0.237321,0
534,-2.008882,-1.322382,1.447493,0.006198,-0.130026,0.257062,0
535,-2.385999,0.699877,1.682618,-0.044598,-0.114465,0.194067,0
536,-2.599291,0.997558,1.484194,-0.32101,-0.111035,-0.10176,0
537,-2.389605,-0.313621,0.992752,-0.365812,-0.098662,-0.142257,0
538,-1.940271,-1.125524,0.37843,-0.218504,-0.137877,-0.161799,0
539,-1.579401,-1.246546,-0.038705,0.065708,-0.202031,-0.189838,0
540,-1.324529,-1.151091,-0.154552,0.217825,-0.119511,-0.148108,0
541,-1.432743,-0.346258,-0.198,0.179852,-0.052358,-0.241637,0
542,-1.484217,0.076808,-0.191424,0.198954,-0.059688,-0.277711,0
543,-1.244132,-0.270833,-0.308942,0.216556,-0.060823,-0.262576,0
544,-1.069631,-0.501035,-0.434547,0.202402,0.076421,-0.291333,0
545,-0.938982,-0.698291,-0.502816,0.186201,0.188097,-0.375601,0
546,-0.703927,-1.063571,-0.467591,0.239504,0.278371,-0.417443,0
547,-0.225954,-1.055675,-0.458921,0.287329,0.327054,-0.393322,0
548,0.155441,-0.653467,-0.406566,0.366699,0.380941,-0.325246,0
549,0.364726,-0.668783,-0.22135,0.33627,0.2331,-0.377557,0
550,0.741149,-1.425366,-0.222024,0.39238,0.201508,-0.375956,0
551,1.250158,-1.919129,-0.261633,0.474973,0.19283,-0.363959,0
552,2.031436,-2.826206,-0.27859,0.503333,-0.020302,-0.162763,0
553,2.50584,-3.294799,-0.189218,0.525586,0.090533,-0.001944,0
554,2.611444,-3.88053,-0.057406,0.470676,0.025733,0.239296,0
555,2.256641,-3.686726,0.268879,0.088993,0.279791,0.516793,0
556,2.957521,-1.314831,0.046409,0.052728,0.494447,0.433818,0
557,3.509044,-0.048492,-0.09664,0.15703,0.69837,-0.044922,0
558,2.524456,-0.381059,0.008004,0.131299,0.659315,0.384053,0
559,2.249918,-1.009373,-0.07002,0.025963,0.473471,0.334603,0
560,2.116316,-2.532806,0.599706,0.075708,0.054774,0.26757,0
561,1.734557,-2.958461,1.082557,0.2558,-0.008573,0.26479,0
562,1.195704,-3.31707,1.452062,0.321973,-0.083257,0.287259,0
563,0.856729,-3.057805,1.644847,0.268048,-0.230695,0.3564,0
564,0.275716,-3.222814,1.854644,0.043457,-0.431873,0.520189,0
565,0.117605,-3.065644,1.58201,-0.080358,-0.471682,0.526036,0
566,-0.288389,-2.620623,1.201522,-0.181737,-0.446672,0.523027,0
567,-0.627456,-2.035087,0.788206,-0.22203,-0.445634,0.493012,0
568,-0.970643,-1.446114,0.584228,-0.256272,-0.331403,0.426724,0
569,-1.235372,-0.919389,0.42788,-0.207307,-0.217419,0.1675,0
570,-1.513627,-0.419788,0.406068,-0.188396,-0.183971,0.092094,0
571,-1.734662,-0.286672,0.342397,-0.105748,-0.080078,-0.046658,0
572,-1.746942,-0.212954,0.299488,-0.084281,0.06651,-0.267785,0
573,-1.456732,-0.231984,0.278038,-0.013434,0.333259,-0.606148,0
574,-0.901332,-0.685022,0.403207,0.109919,0.423192,-0.656931,0
575,-0.161503,-0.429343,0.557599,0.263575,0.158327,-0.278694,0
576,0.28855,0.172431,0.726614,-0.065317,-0.080089,-0.254085,0
577,0.462828,-0.27006,0.676055,-0.151807,-0.183849,-0.265635,0
578,0.19417,-0.359135,0.540765,0.001902,-0.009615,0.279347,0
579,-0.365836,1.203942,0.414141,-0.151689,0.184721,0.59943,0
580,-0.683991,2.097451,-0.310276,-0.252844,0.423779,0.339339,0
581,0.420561,-0.304263,-1.120945,-0.250505,0.690361,0.387833,0
582,0.818729,1.227046,-1.060306,-0.165414,-0.32391,0.869179,0
583,0.562813,-0.177119,-1.072045,-0.071092,-0.450782,0.805238,0
584,-0.588692,-1.420612,-1.060335,0.37161,-0.072179,0.625423,0
585,-1.372062,-0.518841,-1.050939,0.543676,0.386387,0.378976,0
586,-1.62973,0.250902,0.082863,0.602996,0.590905,-0.03403,0
587,-0.977125,-0.172442,0.689373,0.164278,0.051337,0.158146,0
588,-1.168643,0.14699,0.892724,0.093584,-0.09769,0.01411,0
589,-1.341486,-0.479142,0.979914,0.03388,-0.080988,-0.049715,0
590,-1.263233,-0.194844,0.944845,-0.145752,-0.111438,-0.100428,0
591,-1.027398,0.257106,0.672448,-0.171727,-0.148816,-0.228604,0
592,-0.673516,0.254307,0.266863,-0.148011,-0.153395,-0.206729,0
593,-0.338847,-0.060149,0.027117,-0.040748,-0.199385,-0.220777,0
594,-0.053029,-0.176887,-0.064741,0.049239,-0.213904,-0.228765,0
595,0.290498,0.073259,-0.047706,0.084133,-0.220377,-0.260419,0
596,0.588838,0.124817,-0.146101,0.049201,-0.219523,-0.299452,0
597,0.892901,-0.144564,-0.176747,0.010695,-0.255328,-0.227053,0
598,1.009952,-0.049863,-0.250827,0.016911,-0.381534,-0.063638,0
599,0.819247,0.083664,-0.177554,0.041036,-0.29812,-0.055505,0
600,0.616059,0.10304,-0.05188,0.042621,-0.231515,-0.075018,0
601,0.661634,0.393219,0.068776,0.087649,-0.213063,-0.082862,0
602,0.836819,0.924148,0.077865,0.137326,-0.185005,0.016717,0
603,0.938124,0.404039,0.050323,0.372506,-0.109721,-0.069092,0
604,1.098844,-0.339233,0.104741,0.477432,-0.125076,-0.096959,0
605,1.621553,-0.995421,0.178668,0.577214,-0.074015,0.024048,0
606,2.261422,-1.882319,0.303915,0.266633,0.714502,-0.188597,0
607,2.695687,-3.329175,0.512832,0.025545,0.866233,-0.064366,0
608,2.738585,-3.707795,0.321337,-0.24561,0.898247,0.351509,0
609,2.634461,-3.462066,0.232701,-0.145175,0.893664,0.260904,0
610,2.12772,-2.991533,0.218944,-0.351264,0.091756,0.333248,0
611,1.40942,-1.13542,0.474331,-0.231636,-0.1049,0.322959,0
612,0.896328,-0.450607,0.426072,-0.042213,-0.133255,0.282789,0
613,0.341264,0.454717,0.680613,0.073756,-0.042524,0.293859,0
614,-0.516036,0.985332,0.864088,-0.098235,-0.096027,0.265746,0
615,-1.162278,0.967786,1.016626,-0.200748,-0.124567,0.220916,0
616,-1.757151,0.922509,0.86725,-0.26911,-0.236021,0.152258,0
617,-2.17668,0.820724,0.578167,-0.239333,-0.370287,0.220913,0
618,-2.31299,0.894414,0.117785,-0.183525,-0.369893,0.256964,0
619,-2.361136,0.781666,-0.681437,-0.101224,-0.403233,0.181222,0
620,-2.395698,0.643262,-1.203862,-0.043801,-0.32136,0.007787,0
621,-2.036369,0.476417,-1.083634,-0.019064,0.264973,-0.332774,0
622,-1.726601,-0.008662,-0.459143,-0.122277,0.489894,-0.260076,0
623,-2.116206,-0.623268,0.395637,-0.081784,0.135509,-0.069149,0
624,-2.008412,-0.389018,0.861835,-0.131286,-0.000237,-0.171893,0
625,-1.229711,0.09696,0.666894,-0.228314,-0.031542,-0.247714,0
626,-1.072674,0.930218,0.743835,-0.298715,-0.103275,-0.012678,0
627,-1.144963,1.944584,0.750576,-0.232189,-0.095861,0.137982,0
628,-0.19684,2.334184,0.268522,-0.173362,-0.121491,0.446296,0
629,0.939649,1.762935,-0.11805,0.020893,0.075911,-0.019553,0
630,-0.283311,-0.730773,-0.415021,0.466364,0.22239,-0.075089,0
631,-0.290501,-2.031589,-0.114303,0.778003,0.256678,-0.057178,0
632,-0.046093,-0.366065,0.34781,0.290582,0.506934,-0.001433,0
633,-0.703714,0.580872,0.67422,0.231242,1.455986,-1.149815,0
634,1.040677,0.393409,0.487956,-0.001645,0.279549,0.177931,0
635,1.432575,2.558791,-0.036578,-0.12889,-0.26915,0.556899,0
636,0.785154,1.204831,-0.009455,-0.08202,-0.305548,0.15884,0
637,-0.19012,-0.260741,-0.025072,-0.143228,-0.309519,0.095103,0
638,-0.974002,-0.656596,-0.251162,-0.207745,-0.151223,0.046454,0
639,-0.630283,-0.614018,-0.008466,0.047261,-0.015213,-0.316404,0
640,0.237799,0.521614,0.026053,0.066032,-0.131363,-0.426103,0
641,0.539863,1.761405,-0.188139,-0.097863,-0.278744,-0.262731,0
642,0.740256,2.077569,-0.305717,-0.039541,-0.309538,0.030211,0
643,0.78716,1.110172,-0.314831,0.171669,-0.204611,-0.232979,0
644,0.569357,-0.598569,0.149445,0.374239,-0.09054,-0.263026,0
645,0.69432,-0.962588,0.230901,0.392845,-0.262472,-0.003799,0
646,0.822061,-1.238086,0.018502,0.383658,-0.309372,-0.000487,0
647,1.109481,-1.64602,-0.247091,0.348476,-0.125786,-0.070743,0
648,1.367372,-2.316345,-0.137609,0.251661,0.286535,-0.056316,0
649,1.803388,-2.226918,0.030897,0.18309,0.375851,0.026406,0
650,2.196437,-2.439987,-0.039792,-0.064451,0.509833,0.070267,0
651,2.05915,-3.031979,0.003805,-0.258226,0.834074,0.176601,0
652,1.915642,-2.798656,0.121076,-0.300334,0.78323,0.31271,0
653,1.504532,-1.842052,0.211978,-0.35771,0.301941,0.390742,0
654,1.107042,-1.612145,0.338162,-0.160058,-0.114129,0.284957,0
655,0.675353,-0.89656,0.24984,0.043321,0.29903,-0.018805,0
656,0.057488,0.309157,0.296322,-0.052887,0.294498,-0.037977,0
657,-0.447888,0.240337,0.628302,-0.112671,0.078061,0.101292,0
658,-0.864241,0.528969,0.737187,-0.217831,-0.232384,0.33712,0
659,-1.072356,0.774501,0.521774,-0.234448,-0.383597,0.415573,0
660,-1.214412,0.890283,0.195894,-0.224593,-0.388167,0.39625,0
661,-1.496318,1.069072,-0.047723,-0.193907,-0.344548,0.303185,0
662,-1.520128,1.031609,-0.248667,-0.186739,-0.270687,0.090688,0
663,-1.522894,0.710631,-0.429872,-0.161456,-0.231667,-0.085829,0
664,-1.851715,0.4093,-0.446738,-0.120855,-0.170323,-0.146547,0
665,-1.863083,-0.15552,-0.380932,-0.032994,0.171902,-0.299621,0
666,-1.669538,-1.346654,-0.243458,-0.039222,0.122384,-0.279914,0
667,-1.671166,-1.488044,0.217116,-0.011804,0.031427,-0.246943,0
668,-1.608325,-0.539085,0.479121,0.012093,-0.084574,-0.167156,0
669,-1.494315,0.543236,0.646241,-0.12832,-0.018623,-0.106597,0
670,-1.403422,1.30681,0.890521,-0.255241,0.024095,-0.231228,0
671,-1.295475,0.001164,0.967723,-0.14598,-0.181068,-0.039268,0
672,0.435684,0.742257,0.617807,-0.077442,-0.200066,0.769532,0
673,1.569108,2.699264,-0.121335,-0.024281,-0.098946,0.67448,0
674,-0.314347,0.403945,-0.440266,0.443873,0.893648,-1.075507,0
675,0.247506,-4.031176,-0.034347,0.557025,0.462118,0.256821,0
676,0.578519,0.222816,0.124883,0.321304,0.333947,0.475038,0
677,-0.460174,1.331117,0.654592,0.012675,0.131906,0.22591,0
678,-0.779529,1.752801,0.440313,-0.026862,0.416359,-0.135039,0
679,-0.831565,1.410711,0.519436,0.011105,0.376741,-0.246964,0
680,-0.17414,1.330001,0.153459,-0.07442,0.121567,-0.226663,0
681,0.242219,0.887421,-0.350471,-0.206128,-0.112827,-0.163992,0
682,0.530691,0.709709,-0.381344,-0.224355,-0.137725,-0.215257,0
683,0.683367,1.20667,-0.38305,-0.067506,-0.179886,-0.305454,0
684,0.830083,1.316998,-0.394986,-0.081303,-0.32321,-0.075683,0
685,0.711225,1.621314,-0.469913,-0.098832,-0.419441,0.003395,0
686,0.644972,1.145386,-0.20912,-0.007494,-0.444663,0.049807,0
687,0.610995,0.047213,0.32082,0.190617,-0.160871,-0.175272,0
688,1.08177,-0.528802,0.636767,0.443836,-0.030338,-0.25391,0
689,1.942713,0.072729,0.776606,0.606556,-0.063577,-0.312105,0
690,2.862671,-1.183868,0.405423,0.238921,0.044844,-0.376016,0
691,3.387225,-2.515117,-0.135068,-0.220303,0.498214,-0.04968,0
692,2.96133,-4.36685,-0.759512,-0.096768,0.511411,0.501603,0
693,2.852064,-4.368988,-0.663064,-0.079209,0.558975,0.397247,0
694,1.880269,-2.593096,-0.107038,-0.037753,0.56131,0.393098,0
695,1.632561,-1.444944,-0.104899,-0.352596,0.254601,0.329054,0
696,1.330692,-1.232703,0.093546,-0.006348,-0.186166,0.393553,0
697,0.567308,0.81928,-0.108832,-0.020474,-0.203452,0.335817,0
698,-0.449783,2.231923,-0.048312,-0.18026,-0.250168,0.117544,0
699,-1.3848,1.719364,0.003498,-0.008427,-0.405624,-0.001345,0
700,-2.248682,1.195637,0.122048,-0.049294,-0.421479,-0.016,0
701,-2.967449,1.153852,0.005986,-0.127847,-0.402597,0.135872,0
702,-3.188572,1.771333,-0.505891,-0.071903,-0.252621,0.174666,0
703,-2.961813,2.096572,-0.784598,0.006183,-0.13023,0.117141,0
704,-2.260222,1.031359,-0.080851,0.054514,0.493836,-0.169905,0
705,-2.231509,-1.341606,1.373036,-0.040523,0.13826,-0.162362,0
706,-2.685004,-1.882155,1.081073,-0.158924,0.051162,-0.219546,0
707,-2.317165,-2.499135,0.276857,-0.427913,-0.128943,-0.253243,0
708,-1.507224,-2.98349,-0.244566,-0.595152,-0.237401,-0.159032,0
709,-0.341915,-2.153785,-0.419088,-0.429606,-0.305148,0.166567,0
710,0.58472,1.334917,-0.13828,-0.081782,-0.07445,0.549082,0
711,1.622469,4.660931,-0.294458,0.004522,0.115283,0.280599,0
712,0.757205,3.18034,-0.112734,0.805496,0.901131,-0.127968,0
713,1.621087,-0.441435,-0.103127,0.509799,0.200496,0.599194,0
714,0.17381,-1.992544,0.368383,0.178078,0.147554,0.11269,0
715,-0.806021,-1.325552,0.652309,0.344523,0.867072,-0.818723,0
716,0.625824,1.683394,0.325169,-0.213962,0.169154,0.298335,0
717,0.379382,3.344918,0.083105,-0.226359,0.171096,0.290835,0
718,0.260833,1.225144,-0.111559,-0.17128,-0.246087,-0.037293,0
719,-0.364489,-0.185507,-0.311741,-0.045483,-0.258337,-0.070709,0
720,-0.156138,-0.749974,0.0077,0.123502,-0.046525,-0.229438,0
721,-0.031345,0.069283,-0.115324,0.018383,-0.110022,-0.021907,0
722,0.075515,1.00008,-0.410599,-0.171351,-0.213624,-0.250821,0
723,0.141107,0.647213,-0.402211,-0.101817,-0.221031,-0.220456,0
724,0.476536,0.64972,-0.254593,-0.015107,-0.191718,-0.137678,0
725,0.773229,1.147449,0.225405,0.135427,-0.117911,-0.150367,0
726,1.067739,0.810458,0.593225,0.186208,-0.189441,-0.161955,0
727,1.575588,0.011156,0.50593,0.21046,-0.232605,-0.079726,0
728,2.667351,-1.411413,0.199185,0.123733,0.008884,-0.109614,0
729,3.142114,-1.644581,-0.509704,-0.10326,0.181577,0.095164,0
730,2.903543,-2.993497,-0.766015,-0.112569,0.3017,0.159598,0
731,2.61455,-4.085615,-0.463259,-0.171737,0.687548,0.32864,0
732,2.194106,-2.348135,-0.369078,-0.072705,0.402541,0.374414,0
733,1.87818,-1.856125,-0.324913,-0.045122,0.421401,0.413358,0
734,1.219813,-0.923752,-0.085016,-0.225886,0.127343,0.026817,0
735,0.625587,1.226,0.156975,-0.049992,-0.001057,-0.174714,0
736,-0.288109,1.062312,0.324922,-0.067553,0.000416,-0.176285,0
737,-1.309823,1.257167,0.433972,-0.045288,-0.311816,0.187949,0
738,-1.954625,1.525142,0.312689,-0.150144,-0.322482,0.441202,0
739,-2.236359,1.777293,0.104231,-0.213091,-0.372215,0.425125,0
740,-2.24471,2.083789,-0.344874,-0.240989,-0.468304,0.315019,0
741,-2.374278,2.249005,-0.789302,-0.139753,-0.411012,0.10827,0
742,-2.356896,1.787905,-0.845206,-0.029547,-0.039381,-0.271946,0
743,-1.973756,0.082745,-0.199411,0.026799,0.551312,-0.401216,0
744,-2.372586,-2.192153,0.811256,0.074125,0.525374,-0.329375,0
745,-2.761084,-2.271466,1.001992,-0.037444,0.038745,-0.106309,0
746,-2.138868,-1.545065,0.492661,-0.296013,-0.046814,-0.260004,0
747,-1.212163,-0.801088,0.384949,-0.476701,-0.310557,-0.315466,0
748,-0.48682,-0.04332,0.465956,-0.393785,-0.331468,0.012872,0
749,0.666957,3.502528,0.112686,-0.188779,-0.182086,0.799556,0
750,1.32507,5.581762,-0.14496,-0.079455,0.098246,0.287039,0
751,1.142596,3.360651,0.015777,0.158522,0.408474,-0.453371,0
752,-1.148604,-1.677994,-0.15614,0.576304,0.717827,0.271469,0
753,-0.439631,-3.781802,-0.001144,0.577281,0.823896,-0.317195,0
754,-0.215012,0.8516,0.473051,0.44731,1.166064,-0.52079,0
755,0.984536,3.191488,0.363063,-0.274802,-0.188975,0.290941,0
756,0.937518,2.814928,0.00109,-0.218303,-0.27094,0.16708,0
757,0.125681,0.838845,-0.094984,-0.118706,-0.306809,-0.025647,0
758,-0.380499,-0.713537,-0.120031,-0.055548,-0.102188,-0.054892,0
759,-0.474522,-0.612538,0.011642,-0.002275,-0.026538,-0.094111,0
760,0.080022,0.615543,0.109014,-0.034038,-0.214488,-0.090006,0
761,0.39066,1.421607,-0.072515,-0.123169,-0.288205,-0.388565,0
762,0.593404,1.523743,-0.21544,-0.094305,-0.297114,-0.092464,0
763,0.655918,1.455235,-0.187142,0.011217,-0.21655,0.019407,0
764,0.69185,0.488776,0.111314,0.190466,-0.160702,-0.20059,0
765,0.588862,-0.341702,0.357349,0.311298,-0.174309,-0.040585,0
766,0.679636,-0.350426,0.329153,0.463511,-0.206653,-0.069612,0
767,0.973322,-0.271719,0.105708,0.555474,-0.171556,-0.265394,0
768,1.362318,-1.171786,0.012371,0.350929,0.027002,-0.135747,0
769,1.835678,-2.174775,0.275472,0.12466,0.248532,-0.109222,0
770,2.399795,-3.189795,0.272167,-0.087428,0.42043,-0.10411,0
771,2.630094,-3.906687,0.063187,-0.167749,0.676808,0.092042,0
772,2.47515,-3.902124,0.121919,-0.212863,0.789913,0.286223,0
773,1.931184,-3.715488,0.273841,-0.087227,0.302906,0.518197,0
774,1.733889,-3.238451,0.496178,-0.135255,-0.195086,0.587317,0
775,1.236093,-0.900028,0.359381,-0.285517,0.141318,-0.02245,0
776,0.619603,-0.059976,0.207652,0.042372,0.068422,0.018128,0
777,-0.051132,0.26626,0.456786,-0.165854,-0.331306,0.266602,0
778,-0.809837,0.962333,0.469822,-0.205322,-0.375259,0.356316,0
779,-1.11385,1.247564,0.266507,-0.200173,-0.310775,0.345947,0
780,-1.52336,1.174764,-0.086637,-0.23892,-0.296488,0.332186,0
781,-1.982644,1.125808,-0.498911,-0.284142,-0.293341,0.302439,0
782,-2.142992,1.367666,-0.901992,-0.208216,-0.269127,0.131552,0
783,-2.213777,1.457657,-0.967764,-0.025354,-0.027519,-0.276795,0
784,-2.455065,0.78292,-0.654527,0.02364,0.05201,-0.314216,0
785,-2.221932,-0.531001,0.050607,0.141223,0.220622,-0.194088,0
786,-2.384561,-1.729019,0.6193,0.001791,0.055854,0.150732,0
787,-2.396796,-0.744186,0.766436,-0.093126,0.041685,0.094174,0
788,-1.871028,-0.274378,0.571885,-0.329364,0.00545,-0.282633,0
789,-1.485978,-1.217646,0.363207,-0.557022,-0.096826,-0.345351,0
790,-1.13015,-1.69679,-0.00223,-0.543363,-0.207203,-0.062087,0
791,-0.079279,0.60614,-0.065139,-0.331856,-0.308353,0.703546,0
792,1.156873,3.56136,-0.107293,-0.07762,0.011545,0.426472,0
793,1.178229,3.95896,-0.188838,0.14998,0.251022,-0.299428,0
794,-1.18501,-0.034328,-0.378621,0.610642,0.367281,0.11275,0
795,0.009119,-2.237438,0.213656,0.685077,2.33558,-2.133803,0
796,0.59217,-0.490049,0.422724,0.620992,1.414787,-1.071117,0
797,2.270428,3.894426,-0.182194,-0.087977,-0.284629,1.117201,0
798,0.915527,2.284247,0.329561,0.03771,-0.091772,0.170093,0
799,-0.669154,-0.298322,0.19041,-0.056868,-0.033443,0.24994,0
800,-1.385136,-0.904832,-0.162055,-0.096189,-0.017201,-0.114056,0
801,-1.843383,-0.779705,-0.153665,0.045169,-0.054901,-0.277243,0
802,-0.07984,-0.643458,0.474843,0.0985,-0.018654,-0.260288,0
803,-0.077888,1.362556,-0.08752,-0.191218,-0.332672,-0.18777,0
804,0.410322,1.93617,-0.367923,-0.203378,-0.285356,-0.199922,0
805,0.382445,1.418592,-0.380274,0.053714,-0.195949,-0.203673,0
806,0.531696,1.053205,-0.244167,0.054832,-0.337883,-0.010898,0
807,0.456486,0.955492,0.013943,0.104925,-0.310036,-0.093875,0
808,0.486187,0.221457,0.269328,0.318321,-0.148799,-0.238579,0
809,0.616009,-0.310641,0.288008,0.460296,-0.080316,-0.221934,0
810,0.815548,-0.721805,0.107263,0.450018,-0.204656,-0.149365,0
811,1.225881,-1.120311,0.041205,0.317996,-0.176129,-0.159877,0
812,1.810987,-1.950148,0.063447,0.172151,0.051228,-0.138345,0
813,2.445949,-2.784659,0.145863,-0.02979,0.329251,-0.021915,0
814,2.936314,-3.026618,-0.243507,-0.144612,0.630321,-0.032507,0
815,2.681812,-3.783592,-0.398139,-0.204515,0.794775,0.335476,0
816,2.670171,-2.693192,-0.27784,-0.180479,0.627181,0.336756,0
817,1.948498,-2.492685,0.022374,-0.151518,0.192164,0.32348,0
818,1.557935,-2.215541,0.317324,0.003222,0.101579,0.304184,0
819,1.067644,-0.594022,0.167612,-0.026868,0.1076,0.119893,0
820,0.333198,0.661709,0.328583,-0.132823,0.01856,-0.047294,0
821,-0.427908,0.643932,0.638415,-0.140345,-0.238862,0.025798,0
822,-1.356354,0.898279,0.707448,-0.148886,-0.305478,0.268474,0
823,-1.909426,1.075731,0.500395,-0.152121,-0.375574,0.417424,0
824,-2.115036,1.532616,0.17577,-0.153605,-0.475605,0.404964,0
825,-2.235542,1.795883,-0.287949,-0.128947,-0.536002,0.337582,0
826,-2.425586,1.903255,-0.866254,-0.129682,-0.502116,0.249959,0
827,-2.697941,1.699052,-1.244977,-0.089114,-0.293445,0.023133,0
828,-2.820586,0.192814,-0.622198,-0.101266,0.844753,-0.092125,0
829,-2.499346,-2.632757,0.810811,-0.080768,0.607189,-0.11297,0
830,-2.625858,-3.323366,0.731764,-0.234011,0.030818,-0.462796,0
831,-2.206186,-3.382944,0.349144,-0.415339,-0.145352,-0.379765,0
832,-1.009666,-1.08427,0.159071,-0.4066,-0.191192,-0.161894,0
833,0.073213,1.9344,0.099742,-0.326562,-0.258686,0.227344,0
834,0.845427,4.241304,0.08402,0.000881,-0.078632,0.445774,0
835,1.266921,4.392581,-0.016847,-0.020708,0.126645,0.313083,0
836,-0.195651,1.941475,-0.370027,0.529469,1.029419,-0.961938,0
837,0.512028,-2.162686,-0.271162,0.900446,0.808473,-0.017939,0
838,0.103515,-1.28416,-0.368076,0.822842,0.393377,0.168999,0
839,-0.356377,-1.011954,0.156064,0.389018,0.168123,0.403062,0
840,-1.063378,-0.409832,0.441979,-0.031058,0.266148,0.13187,0
841,-1.190705,-0.049194,0.408581,-0.118284,0.16958,0.000969,0
842,-1.029055,0.145851,0.243885,-0.235513,-0.00363,-0.098735,0
843,-0.857159,0.656444,0.013696,-0.25286,-0.225776,0.006892,0
844,-0.476406,1.165977,-0.398768,-0.200781,-0.304614,-0.019488,0
845,-0.39558,0.664781,-0.605864,0.029916,-0.311469,-0.24842,0
846,-0.18844,-0.269039,-0.625653,0.103724,-0.311582,-0.168921,0
847,-0.026647,0.188201,-0.558879,0.104666,-0.320518,-0.192105,0
848,0.048628,0.335948,-0.54252,0.117002,-0.273817,-0.166617,0
849,0.190478,0.340719,-0.52658,0.171583,-0.210275,-0.181353,0
850,0.160771,0.238162,-0.428379,0.232991,-0.202743,-0.132697,0
851,-0.015143,-0.262645,-0.244164,0.48328,-0.076136,-0.158683,0
852,-0.275383,-0.40904,-0.172087,0.553461,-0.024124,-0.173028,0
853,-0.373135,-0.743542,-0.355063,0.680611,0.011843,-0.278814,0
854,-0.266563,-1.689995,-0.325332,0.658265,-0.226682,-0.336278,0
855,-0.057329,-2.496429,0.030744,0.569102,-0.363844,-0.075665,0
856,0.832489,-2.573651,0.188746,0.459162,-0.312626,-0.182486,0
857,1.53751,-3.710891,0.52414,0.193915,0.265038,0.05439,0
858,1.723976,-3.989517,0.775764,0.067009,0.58313,0.347535,0
859,2.023467,-3.461607,0.898956,-0.037485,0.978072,0.278059,0
860,2.24901,-1.222366,0.429781,-0.173829,1.043135,0.173001,0
861,1.935074,1.23435,-0.143854,-0.171072,0.915187,0.042102,0
862,2.227226,0.187792,0.515416,0.065601,0.961348,0.039783,0
863,1.453148,-2.833545,0.707229,0.228053,0.38236,0.118157,0
864,0.430743,-3.657323,1.140182,0.354225,0.309986,0.121284,0
865,0.05776,-3.160048,1.781078,0.429554,0.302878,0.129966,0
866,-0.136365,-3.161453,1.767973,0.158819,-0.0114,0.303118,0
867,-0.30282,-3.115487,1.340531,-0.121464,-0.28202,0.45201,0
868,-0.518147,-3.192137,0.982339,-0.16579,-0.37937,0.503969,0
869,-0.498011,-3.087506,0.640514,-0.37677,-0.456658,0.534055,0
870,-0.535882,-2.740165,0.391977,-0.421172,-0.483609,0.504067,0
871,-0.591609,-2.427415,0.284365,-0.410643,-0.480448,0.489383,0
872,-0.615102,-2.202529,0.276435,-0.371484,-0.453604,0.343484,0
873,-0.654362,-2.089844,0.102965,-0.23927,-0.457107,0.143407,0
874,-0.622805,-2.154124,-0.099695,-0.156606,-0.357289,-0.04576,0
875,-0.681504,-2.390432,-0.094461,0.051698,-0.057218,-0.338727,0
876,-0.543505,-2.270688,-0.056263,0.205417,0.275437,-0.514382,0
877,-0.285266,-2.081619,0.123692,0.18181,0.465071,-0.765511,0
878,0.551291,-2.067335,0.354912,0.200623,0.337545,-0.691826,0
879,0.616332,-0.902941,0.818551,0.285862,0.161702,-0.361631,0
880,0.318139,-1.043384,1.033497,0.032931,-0.084652,-0.408765,0
881,-0.242234,-1.689613,1.154324,-0.138183,-0.437902,-0.100942,0
882,-0.451584,-1.264917,1.156591,-0.042555,0.200599,-0.025789,0
883,-0.997818,0.498338,0.77557,-0.030294,0.640044,0.180827,0
884,-0.613677,0.658738,-0.507023,-0.308038,2.152698,0.067605,0
885,2.061408,-2.593331,-0.749089,-0.150057,-0.788592,1.021821,0
886,0.411119,-0.348526,-0.451573,-0.170812,-1.343249,1.116633,0
887,-0.945759,0.628873,-0.47619,0.101702,-0.955952,0.75767,0
888,-0.986869,2.733075,-1.575169,0.686856,0.192644,1.010828,0
889,-0.521452,2.779104,-2.299436,0.662952,0.32014,0.848292,0
890,-0.969117,0.58248,-0.309651,0.620294,0.401942,0.215175,0
891,-1.326778,-1.382188,0.87289,0.613587,0.395309,0.193105,0
892,-1.46151,-0.896051,1.428938,0.182105,0.020197,0.419931,0
893,-2.092174,-0.131337,1.747224,-0.258713,-0.034449,0.00521,0
894,-2.430778,-0.116942,1.372031,-0.263856,0.064167,-0.069948,0
895,-2.153933,-1.108198,0.737506,-0.199586,0.072867,-0.091218,0
896,-1.901731,-1.68461,0.543454,0.037415,-0.155188,-0.009742,0
897,-1.937196,-1.212788,0.598149,-0.062111,-0.163047,-0.071769,0
898,-1.742513,-0.513074,0.472562,-0.063931,-0.111014,-0.126078,0
899,-1.39143,-0.288449,0.205535,-0.054431,-0.071916,-0.103792,0
900,-1.262697,0.047854,-0.090963,0.078013,-0.081209,-0.088327,0
901,-1.124389,-0.116366,-0.168835,0.151375,-0.133424,-0.021731,0
902,-1.053618,-0.232896,-0.12653,0.14346,-0.102896,-0.084331,0
903,-1.178494,-0.32057,-0.204202,0.18776,-0.063858,-0.195781,0
904,-1.158899,-0.765721,-0.256962,0.243231,0.023483,-0.306083,0
905,-0.899184,-0.956022,-0.31152,0.216604,0.103765,-0.226356,0
906,-0.546543,-0.198449,-0.391212,0.187228,0.168866,-0.195112,0
907,-0.193551,0.269999,-0.362641,0.094958,0.263722,-0.230509,0
908,-0.114641,-0.241496,-0.390276,0.163581,0.308641,-0.30192,0
909,0.022777,-1.136261,-0.525971,0.342402,0.208225,-0.264923,0
910,0.288023,-1.154523,-0.451455,0.464577,0.149206,-0.240702,0
911,0.559137,-0.900821,-0.461637,0.479869,0.126695,-0.28323,0
912,0.996832,-1.534131,-0.440677,0.542854,0.169482,-0.248803,0
913,1.71441,-2.933702,-0.31423,0.545857,0.165903,-0.215866,0
914,2.103296,-3.355355,0.098156,0.484189,0.10072,0.129381,0
915,2.523405,-3.898987,0.085763,0.150109,0.063295,0.203315,0
916,2.516979,-3.257297,0.259016,0.148479,0.065998,0.260678,0
917,2.976237,-1.873433,0.109832,0.224346,0.442546,0.353152,0
918,3.247564,0.801639,0.099753,0.360476,0.435507,0.250834,0
919,2.856012,1.056574,0.355201,0.46199,0.593121,0.4156,0
920,2.340965,-0.446423,-0.023553,0.209677,0.421515,0.440074,0
921,1.885967,-2.637297,0.270906,0.049261,0.108907,0.417228,0
922,1.396663,-4.365711,0.828383,0.143521,0.016709,0.354886,0
923,1.374845,-4.438946,1.578216,0.497439,0.10822,0.186777,0
924,0.942393,-3.127754,2.259314,0.493331,0.016644,0.303283,0
925,0.254301,-3.000121,2.372916,0.238364,-0.154987,0.4117,0
926,0.026443,-3.521779,2.222442,0.110486,-0.285325,0.583855,0
927,-0.157616,-3.806093,1.820938,-0.029703,-0.319131,0.558638,0
928,-0.705308,-3.269048,1.726693,-0.066336,-0.269522,0.536662,0
929,-0.827571,-2.707406,1.240147,-0.120055,-0.247933,0.466924,0
930,-0.943282,-2.064907,1.039826,-0.173951,-0.137402,0.369668,0
931,-1.023101,-1.590402,0.994863,-0.170282,-0.122849,0.323694,0
932,-0.973644,-1.382387,0.880642,-0.177793,-0.152805,0.242375,0
933,-1.040255,-1.23743,0.65246,-0.145553,-0.232138,0.157617,0
934,-1.317379,-1.224667,0.365293,-0.095274,-0.202794,0.08108,0
935,-1.664584,-1.156191,0.059405,0.150587,0.040589,-0.121843,0
936,-1.742264,-0.644555,0.050729,0.151093,0.106243,-0.280574,0
937,-1.32782,-0.522371,0.304499,0.163899,0.358953,-0.572656,0
938,-0.605199,-0.720647,0.510627,0.27197,0.466337,-0.54875,0
939,0.096367,-0.34269,0.755393,0.241981,0.351459,-0.403907,0
940,0.317107,-0.202438,0.921261,-0.167739,-0.052977,-0.378887,0
941,0.185272,-0.580131,0.915483,-0.096805,-0.185326,-0.177539,0
942,-0.050762,-0.276415,0.559864,-0.076537,-0.125437,-0.10645,0
943,-0.54451,0.9694,0.328355,0.000677,0.378517,0.772614,0
944,-0.158974,1.83979,-0.552418,-0.097747,0.891696,-0.207523,0
945,1.202065,-0.183649,-1.078702,-0.094861,0.117033,0.354228,0
946,0.42708,0.216431,-0.823982,0.08933,-0.511124,0.784035,0
947,-0.131332,-0.624122,-0.85992,0.346428,-0.432971,0.764804,0
948,-0.526534,-0.387939,-1.238998,0.514119,-0.128198,0.661467,0
949,-0.880848,0.19653,-1.106557,0.589629,0.598527,0.139737,0
950,-0.942962,-0.019145,0.399478,0.468617,0.470069,-0.130833,0
951,-1.239356,-0.911708,0.887797,0.147518,0.094192,0.27698,0
952,-1.18498,-0.340266,0.993199,0.04286,-0.055329,0.168015,0
953,-1.383337,-0.481567,1.069974,-0.136367,-0.12351,0.055469,0
954,-1.3286,-0.470885,1.012608,-0.199738,-0.128903,-0.018665,0
955,-0.955599,-0.160938,0.701827,-0.226032,-0.142283,-0.06299,0
956,-0.571635,-0.108482,0.304927,-0.139571,-0.235151,-0.133365,0
957,-0.274757,0.019012,0.132717,0.042451,-0.231138,-0.279944,0
958,0.120519,0.027659,0.02544,0.053461,-0.233161,-0.274187,0
959,0.575036,-0.167002,-0.173029,0.080266,-0.304132,-0.113286,0
960,0.790153,0.079956,-0.312849,0.093492,-0.358091,-0.058634,0
961,0.780777,0.164009,-0.278839,0.110033,-0.409645,-0.050835,0
962,0.604107,-0.26437,-0.091517,0.076294,-0.200464,-0.166143,0
963,0.528169,-0.719227,-0.029507,0.067159,-0.271684,-0.034041,0
964,0.575983,-0.028121,-0.006558,0.078095,-0.286864,0.031678,0
965,0.651321,0.846143,0.009939,0.180798,-0.26847,0.139238,0
966,0.716537,0.698667,0.070404,0.397844,-0.08405,-0.108979,0
967,0.96235,-0.256162,0.209009,0.481046,-0.037529,-0.157495,0
968,1.443745,-0.655289,0.236384,0.396113,-0.095853,-0.114898,0
969,2.123247,-1.769239,0.098348,0.327203,0.09779,0.049016,0
970,2.952354,-3.674567,0.065988,0.205748,0.696815,-0.036784,0
971,2.81179,-4.439559,-0.047245,0.065708,0.932783,0.316981,0
972,2.597036,-3.299056,-0.025637,-0.149198,0.891628,0.251608,0
973,2.318072,-3.164852,0.221138,0.005389,0.755219,0.436313,0
974,1.787843,-2.098078,0.571785,0.164013,0.392057,0.39589,0
975,0.905698,0.206428,0.459053,-0.22108,-0.024818,0.124486,0
976,0.590207,0.462548,0.884878,-0.075438,-0.104078,0.247638,0
977,-0.381125,1.272604,1.082154,-0.026496,-0.198597,0.387503,0
978,-1.068894,1.593518,1.079075,-0.098158,-0.345226,0.431129,0
979,-1.507339,1.575875,0.810048,-0.150872,-0.397977,0.37452,0
980,-1.858785,1.352723,0.443615,-0.174599,-0.498397,0.33515,0
981,-2.075105,1.359853,-0.085607,-0.142253,-0.51198,0.284871,0
982,-2.473438,1.179244,-0.660725,-0.113552,-0.514585,0.220569,0
983,-3.068023,0.756506,-1.253995,-0.045236,-0.415705,0.036994,0
984,-3.069082,-0.122728,-1.423791,0.008026,-0.158049,-0.193388,0
985,-2.038864,-1.73193,-0.561023,0.055134,0.627722,-0.324622,0
986,-1.943606,-1.681685,0.376408,-0.036872,-0.153686,-0.130317,0
987,-1.980949,-0.716371,0.631284,-0.183145,-0.187242,-0.204744,0
988,-1.18701,0.110405,0.711614,-0.315357,-0.221012,-0.335599,0
989,-0.523899,0.420548,0.898514,-0.118086,-0.319368,0.236075,0
990,0.695419,2.13616,0.511727,0.270514,0.017396,0.898702,0
991,1.296576,2.916994,-0.005299,0.363947,0.982,-0.190411,0
992,-1.811449,-0.509559,-0.084574,0.705687,0.834726,-0.179159,0
993,0.860993,-2.326129,-0.20138,0.257349,1.187161,-0.373422,0
994,-0.104362,-1.327722,0.04163,0.809068,0.660029,-0.77448,0
995,1.835307,1.658336,-0.064016,0.114465,-0.177731,0.880498,0
996,0.848597,1.551889,0.503932,-0.044821,-0.294475,0.167014,0
997,-0.665577,0.467702,0.418901,-0.137834,-0.085772,0.325252,0
998,-1.122472,0.116797,0.123466,-0.14562,-0.113098,0.051873,0
999,-1.173285,-0.523191,0.10684,0.127896,-0.083482,-0.461903,0
1000,0.010352,-0.619091,0.152618,0.059238,-0.103028,-0.086017,0
1001,0.216381,0.979313,-0.414149,-0.066317,-0.219165,-0.200225,0
1002,0.163235,0.624456,-0.338222,-0.063585,-0.275669,-0.274829,0
1003,0.191334,0.232326,-0.335386,0.130428,-0.160429,-0.026779,0
1004,0.409144,0.60508,-0.234998,0.159708,-0.235322,0.127013,0
1005,0.391088,0.617083,0.240166,0.258892,-0.211416,-0.084475,0
1006,0.568635,0.630765,0.394145,0.370049,-0.211845,-0.136529,0
1007,0.796721,0.025106,0.076048,0.438286,-0.295679,-0.047812,0
1008,1.223328,-1.237605,-0.203502,0.372689,-0.240608,-0.064752,0
1009,1.783367,-1.385929,-0.093646,0.308821,-0.146446,-0.084503,0
1010,2.40092,-2.140154,-0.093707,0.165848,0.27603,0.088201,0
1011,2.813991,-3.019608,-0.301202,-0.075091,0.589492,0.021609,0
1012,2.540596,-3.391094,-0.13813,-0.045218,0.609694,0.0793,0
1013,2.311561,-3.183095,-0.007537,-0.150862,1.087415,0.27801,0
1014,1.97198,-2.826865,0.179779,-0.219921,0.47823,0.502456,0
1015,1.383704,-1.48039,0.431385,-0.279764,0.136135,0.303288,0
1016,0.986662,-0.275569,0.244402,-0.077146,0.104658,0.0616,0
1017,0.548188,0.513968,0.316171,0.048968,-0.059204,0.02717,0
1018,-0.406551,0.943811,0.476663,-0.015148,-0.184767,0.189759,0
1019,-0.904623,0.99025,0.483806,-0.079715,-0.277653,0.350383,0
1020,-1.260149,0.970991,0.280522,-0.144966,-0.338288,0.350878,0
1021,-1.633213,0.996891,-0.011605,-0.207002,-0.444164,0.326112,0
1022,-1.877904,1.072521,-0.330673,-0.204126,-0.507909,0.258417,0
1023,-2.192681,0.803018,-0.593173,-0.117374,-0.423897,0.157456,0
1024,-2.474992,0.442784,-0.572251,0.083965,-0.249992,-0.009145,0
1025,-2.524474,-0.231768,-0.205332,0.180898,-0.006833,-0.182457,0
1026,-2.49011,-1.023712,0.142027,0.165623,0.091824,-0.267061,0
1027,-2.541892,-1.068496,0.463258,0.125465,-0.024314,-0.101661,0
1028,-2.246916,-0.292624,0.652331,0.021523,-0.09487,-0.054935,0
1029,-1.578644,0.37787,0.762962,-0.168286,0.055399,-0.120889,0
1030,-1.07308,0.415245,0.834811,-0.271322,0.147975,-0.2476,0
1031,-1.122435,-0.914785,0.75285,-0.509525,0.018249,-0.646413,0
1032,-0.428354,-0.902754,0.871982,-0.007266,-0.087132,0.674127,0
1033,1.339721,3.831499,0.097395,-0.057844,-0.006073,0.844114,0
1034,2.101392,5.044875,-0.568614,0.393498,0.854842,-1.369188,0
1035,-0.088222,-1.728736,-0.38829,0.584435,0.612938,-0.064575,0
1036,-0.090793,-2.674988,-0.048469,0.492642,0.944098,-0.140241,0
1037,-1.185136,-0.576106,0.560766,0.57705,0.941977,-0.987222,0
1038,1.298751,2.349691,0.135328,0.12957,0.147317,0.237356,0
1039,0.913313,2.671084,0.282843,-0.003399,-0.060812,0.208839,0
1040,-0.31671,0.826988,0.309729,-0.117756,-0.12126,0.168938,0
1041,-0.787773,-0.216642,0.100541,-0.182415,-0.16688,0.175673,0
1042,-1.2427,-0.300438,-0.127924,-0.182273,-0.093814,0.068845,0
1043,-0.799314,-0.511279,-0.000643,-0.000442,-0.10315,-0.33279,0
1044,0.165518,-0.333933,0.100941,0.008029,-0.259116,-0.358386,0
1045,0.246403,1.466212,-0.192426,-0.082122,-0.431528,-0.10433,0
1046,1.099162,3.143398,-0.243098,0.070223,-0.392213,-0.138373,0
1047,1.367354,3.419639,-0.292853,0.096461,-0.358338,-0.199894,0
1048,1.049846,1.690544,0.020134,0.119936,-0.357471,0.013134,0
1049,0.825604,-0.144468,0.365955,0.256579,-0.306817,-0.049439,0
1050,0.887809,-1.03414,0.353642,0.410433,-0.2596,-0.213612,0
1051,1.124496,-1.16784,0.017909,0.541447,-0.231418,-0.233627,0
1052,1.654753,-1.111424,-0.16433,0.47099,0.079114,-0.077147,0
1053,2.385806,-1.55056,0.061393,0.159663,0.4706,-0.137063,0
1054,2.770649,-2.146221,-0.228917,0.054439,0.581086,-0.058137,0
1055,2.610109,-3.001085,-0.49498,-0.150333,0.967733,0.081586,0
1056,2.214505,-3.408852,-0.476924,-0.127413,0.813159,0.387763,0
1057,1.795592,-2.307239,-0.409691,-0.325846,0.337218,0.427943,0
1058,1.425982,-1.003896,0.048597,-0.367977,-0.134707,0.110895,0
1059,0.873476,-0.549019,-0.006051,0.05123,-0.081347,0.19629,0
1060,0.141758,0.90564,0.221982,0.172933,0.059674,0.155429,0
1061,-0.64622,1.455089,0.430487,-0.01672,-0.037437,0.196853,0
1062,-1.186443,1.642195,0.461725,-0.168783,-0.319187,0.337069,0
1063,-1.580653,1.849771,0.309154,-0.218535,-0.447117,0.378217,0
1064,-1.904305,2.083753,0.151701,-0.268604,-0.601753,0.445589,0
1065,-2.105018,2.266493,-0.350931,-0.155663,-0.679384,0.385362,0
1066,-2.275966,2.051266,-0.990646,-0.040254,-0.618513,0.300331,0
1067,-2.452892,1.323348,-1.285778,-0.013126,-0.486777,0.116587,0
1068,-2.847391,-0.147813,-0.674557,0.069136,0.109666,-0.038206,0
1069,-2.50729,-2.87307,0.697566,0.11218,0.550249,-0.576801,0
1070,-2.266778,-3.412156,0.769372,-0.148399,-0.041827,-0.828255,0
1071,-1.179238,-1.032717,0.456657,-0.260244,-0.442899,0.117984,0
1072,0.303941,2.836416,0.489833,-0.157091,-0.505861,0.447358,0
1073,1.561964,4.490837,0.452703,0.095382,-0.436089,0.793434,0
1074,1.60094,3.268417,0.290036,0.239059,0.784646,-0.697767,0
1075,-2.723121,-0.521887,-0.209602,0.532722,1.459129,-1.438405,0
1076,1.747625,-2.909358,-0.308842,0.876352,1.245816,0.078941,0
1077,0.13323,-0.565282,0.173601,0.484858,0.409304,0.067827,0
1078,0.029059,1.171632,0.401384,0.561925,0.526481,-0.345251,0
1079,0.382199,1.855378,0.135919,0.020919,0.29453,0.209224,0
1080,-0.002576,1.039339,-0.05373,-0.065105,-0.144007,-0.026049,0
1081,-0.35585,0.053088,-0.062412,-0.038545,-0.151327,-0.031226,0
1082,-0.178961,-0.367657,0.040844,-0.000114,-0.201844,-0.13428,0
1083,-0.094941,0.221406,-0.023417,-0.023399,-0.190394,-0.061154,0
1084,0.358244,1.024482,-0.114216,-0.083845,-0.211454,-0.225067,0
1085,0.470296,0.527678,-0.38092,-0.244983,-0.352871,-0.272734,0
1086,0.571145,0.295577,-0.500628,-0.048885,-0.39833,0.099985,0
1087,0.677038,-0.278115,-0.182959,0.236692,-0.261715,0.025421,0
1088,1.151815,-0.505421,0.304553,0.485878,-0.209798,0.070845,0
1089,1.846962,0.088878,0.531906,0.531243,-0.220229,0.027856,0
1090,2.823665,-1.038296,0.246411,0.434093,9.50E-05,-0.496323,0
1091,2.724656,-2.283054,-0.337003,-0.193675,0.554891,0.160978,0
1092,2.744139,-3.126996,-0.293056,-0.337025,0.723316,0.114072,0
1093,2.285431,-3.045779,-0.225862,-0.239865,0.914668,0.217362,0
1094,1.736296,-2.636276,-0.125537,-0.061023,0.578113,0.256961,0
1095,1.345836,-1.595445,0.198346,-0.021839,0.084743,0.048541,0
1096,0.546261,-0.286591,0.184675,0.081104,-0.065745,0.126937,0
1097,-0.371731,1.089525,0.23632,0.038855,-0.115757,0.231417,0
1098,-1.232385,1.560598,0.394211,-0.042673,-0.111407,0.289359,0
1099,-1.836128,1.650861,0.456107,-0.087839,-0.173528,0.265617,0
1100,-2.346724,1.685922,0.389471,-0.174644,-0.493458,0.344263,0
1101,-2.585666,2.079032,0.058286,-0.142883,-0.657285,0.30785,0
1102,-2.784142,2.321164,-0.646301,-0.099932,-0.687405,0.26093,0
1103,-2.881511,1.483166,-1.187496,-0.017583,-0.507296,0.183453,0
1104,-2.741115,-0.005424,-0.677202,0.05486,0.318786,-0.028205,0
1105,-1.746312,-2.894447,0.854597,0.004136,0.61728,-0.372606,0
1106,-1.659673,-3.355891,0.822633,-0.309238,-0.071367,-0.723321,0
1107,-0.931112,-1.314116,0.281381,-0.329609,-0.395355,-0.251421,0
1108,0.008218,1.128624,0.250629,-0.373263,-0.47577,0.230336,0
1109,1.295737,2.506855,0.258924,0.153359,-0.44631,0.7094,0
1110,1.284052,2.798608,0.302266,0.039449,-0.036163,0.535801,0
1111,-0.736763,0.882675,0.065211,0.447612,1.255569,-1.067248,0
1112,2.173137,-2.370964,0.277713,1.099577,1.783601,0.155656,0
1113,1.280118,-0.382783,-0.107087,0.239988,0.018371,0.353787,0
1114,0.195051,-0.684295,0.309805,0.140815,-0.146906,0.370754,0
1115,-0.410761,0.308513,0.309642,-0.091678,-0.085951,0.242256,0
1116,-0.622964,1.360255,0.148715,0.047197,0.151084,-0.041176,0
1117,-0.485941,1.668943,0.356512,0.149811,0.269929,-0.51305,0
1118,0.160731,1.126987,0.26131,0.041209,0.294668,-0.22019,0
1119,0.577545,1.701877,-0.275967,-0.1113,-0.14394,-0.354317,0
1120,0.683391,0.087517,-0.516713,-0.147905,-0.216993,-0.290333,0
1121,0.65384,0.117615,-0.558619,0.091514,-0.290151,0.025243,0
1122,0.458423,-0.158569,-0.320348,0.167512,-0.323545,-0.034533,0
1123,0.70331,-0.458957,-0.271251,0.202316,-0.228188,0.047694,0
1124,1.252123,-0.19947,-0.104312,0.224501,-0.168204,0.09528,0
1125,1.946291,-0.069591,0.114014,0.100217,-0.157516,-0.351299,0
1126,2.537283,-0.994447,-0.082566,0.015476,0.00514,-0.276849,0
1127,2.541921,-2.522384,-0.269651,0.010439,0.294325,0.1457,0
1128,2.520141,-3.271445,-0.207955,-0.063637,0.335665,0.161396,0
1129,2.072877,-3.374083,-0.260086,-0.017064,0.564348,0.193249,0
1130,1.522561,-1.827827,-0.184726,0.128643,0.767546,0.349377,0
1131,1.128395,-1.684715,0.065506,-0.025561,0.342828,0.043462,0
1132,0.582918,-0.571699,0.054928,-0.091458,0.113508,0.011414,0
1133,-0.323492,0.850923,0.187779,0.009091,0.174982,-0.018974,0
1134,-0.925435,1.0108,0.155596,0.028316,0.074297,0.095156,0
1135,-1.326014,1.168668,0.184642,-0.043561,-0.22402,0.257716,0
1136,-1.687798,0.844208,0.119506,-0.157237,-0.346278,0.367974,0
1137,-1.87476,0.786164,-0.121007,-0.204712,-0.419695,0.372828,0
1138,-1.910143,1.125325,-0.457111,-0.107753,-0.459664,0.23288,0
1139,-2.010917,1.327675,-0.62258,0.035842,-0.315594,0.095946,0
1140,-2.020631,1.253447,-0.433478,0.156809,-0.156742,-0.031454,0
1141,-2.011553,0.067509,0.162037,0.125808,0.008388,-0.007256,0
1142,-2.275981,-1.270496,0.927819,-0.011346,-0.074384,0.061587,0
1143,-2.562084,-1.506156,0.967784,-0.073549,-0.045544,0.012878,0
1144,-2.253438,-1.708646,0.456384,-0.160154,0.002022,-0.121316,0
1145,-1.118742,-2.538251,0.211136,-0.391241,-0.03999,-0.33966,0
1146,-0.655192,-1.976222,0.184812,-0.538323,0.024602,-0.41433,0
1147,-0.762187,-0.294244,0.034495,-0.561057,0.085568,-0.358183,0
1148,0.004287,2.54992,-0.066345,-0.328273,-0.122007,0.47102,0
1149,1.326079,4.699063,-0.267101,-0.054352,-0.231422,0.626147,0
1150,2.10515,4.502519,-0.276363,-0.037986,-0.177023,0.563737,0
1151,-0.081799,0.910966,-0.118257,0.539835,0.274687,-0.075939,0
1152,-0.456907,-1.891217,0.067516,0.907934,0.736443,0.36246,0
1153,-1.982653,-2.137244,0.31141,1.004476,1.812737,-1.116784,0
1154,2.505687,2.994611,-0.221426,0.024941,-0.028249,1.204293,0
1155,1.419515,3.685712,0.250758,-0.049138,-0.403341,0.387763,0
1156,-0.446692,1.028064,0.482546,-0.035116,-0.273038,0.131461,0
1157,-0.794795,-0.346678,0.119749,-0.139982,-0.044653,0.106491,0
1158,-1.236064,-0.54848,-0.18004,-0.036781,-0.118488,-0.038241,0
1159,-0.597768,-0.463212,0.319964,0.013161,-0.040735,-0.020202,0
1160,0.178794,0.766313,0.396452,0.116106,-0.113242,-0.458607,0
1161,0.528404,1.424205,-0.060216,-0.257106,-0.35651,-0.36566,0
1162,0.898003,1.714886,-0.345359,-0.071488,-0.322278,-0.05153,0
1163,1.075692,1.82938,-0.360288,0.116063,-0.351304,-0.030919,0
1164,1.009871,1.052729,-0.021126,0.161078,-0.351768,-0.065198,0
1165,0.880498,-0.508106,0.14234,0.274166,-0.313787,-0.070292,0
1166,1.049535,-1.051182,0.20831,0.435072,-0.29713,0.032328,0
1167,1.640387,-1.003658,0.06603,0.415467,-0.023939,-0.184642,0
1168,2.339461,-1.402449,0.087447,0.294809,0.179579,-0.146756,0
1169,2.75598,-2.713196,0.106992,0.092553,0.503698,-0.123704,0
1170,2.612191,-3.515333,-0.038263,-0.028159,0.90398,0.238608,0
1171,2.441692,-3.168782,0.025263,0.00126,1.071572,0.256141,0
1172,2.012485,-2.699782,0.327176,0.144114,0.894578,0.260228,0
1173,1.593752,-2.655284,0.484427,-0.136217,0.107138,0.2693,0
1174,0.976527,-1.491328,0.584378,-0.079728,-0.102619,0.298658,0
1175,0.247177,-0.162727,0.633129,0.039028,-0.08719,0.180048,0
1176,-0.541386,0.565293,0.674758,-0.03008,-0.08538,0.152962,0
1177,-1.230584,0.604832,0.708349,-0.096576,-0.188896,0.163032,0
1178,-1.76951,0.588426,0.483484,-0.142825,-0.355844,0.305548,0
1179,-2.032203,1.091605,0.08683,-0.169261,-0.430628,0.33873,0
1180,-2.191577,1.300486,-0.329021,-0.137307,-0.507832,0.394609,0
1181,-2.349171,1.314881,-0.861046,-0.099576,-0.475249,0.304389,0
1182,-2.427309,1.104738,-1.254429,-0.057927,-0.439799,0.246962,0
1183,-2.3213,0.751618,-1.217984,0.038491,0.208768,-0.094484,0
1184,-1.691103,-1.148757,-0.186722,-0.064332,0.631426,-0.211074,0
1185,-1.937073,-2.768549,0.701328,-0.086946,0.019338,-0.245348,0
1186,-2.435955,-2.5883,0.546993,-0.218567,-0.024188,-0.299937,0
1187,-1.853781,-1.016975,0.298013,-0.197245,0.070431,-0.067776,0
1188,-0.833995,1.103551,0.322716,-0.190605,-0.093609,0.035625,0
1189,-0.349045,1.938239,0.556838,-0.316832,-0.147631,-0.182623,0
1190,-0.266175,1.297014,0.467439,-0.343461,-0.167372,-0.078739,0
1191,0.597734,1.292493,0.050464,-0.115494,-0.349401,0.533031,0
1192,1.441734,1.343646,-0.153078,0.000592,-0.14918,0.497182,0
1193,0.560765,1.133694,-0.431359,0.3888,0.409616,-0.157161,0
1194,-0.950632,-0.13857,-0.37192,0.941261,0.607005,0.106641,0
1195,-0.284381,-0.876109,0.207314,0.629295,1.099173,-0.173021,0
1196,-0.41319,0.763188,0.359206,0.280617,0.336313,-0.183845,0
1197,1.145226,1.527136,-0.228023,0.079173,-0.120173,0.625957,0
1198,0.374071,0.169492,0.027908,0.163038,-0.160872,0.556705,0
1199,-1.002801,-1.25784,0.387588,0.238452,-0.073407,0.208579,0
1200,-1.789397,-1.180153,0.290126,-0.02274,0.03568,0.287877,0
1201,-1.941106,-0.237128,0.091306,-0.096745,-0.033474,0.170162,0
1202,-1.209091,-0.011656,-0.184813,-0.293186,-0.191489,-0.483439,0
1203,-0.723551,0.066218,-0.366323,-0.149808,-0.263738,-0.279999,0
1204,-0.066384,0.920758,-0.450422,0.041765,-0.300259,-0.114954,0
1205,0.227906,1.393635,-0.412653,0.173486,-0.346493,-0.061543,0
1206,0.444824,1.068824,-0.094569,0.187158,-0.451061,-0.235663,0
1207,0.632885,0.70494,0.430639,0.219876,-0.475059,-0.133113,0
1208,0.843728,1.016737,0.596219,0.285516,-0.382556,-0.124077,0
1209,1.116368,1.066178,0.516875,0.37158,-0.306824,-0.225613,0
1210,1.201604,0.629816,0.342841,0.448262,-0.241469,-0.132456,0
1211,1.495805,-0.345003,0.377124,0.578688,-0.23225,-0.231274,0
1212,1.981957,-0.973729,0.541558,0.449722,-0.246897,-0.230091,0
1213,2.438241,-2.390347,0.628814,0.114469,0.087733,-0.154734,0
1214,2.506857,-4.494444,0.347842,-0.051901,0.37629,-0.00175,0
1215,2.682135,-5.24469,0.002856,0.062503,0.794766,0.322024,0
1216,2.16056,-3.88522,0.143817,0.070312,1.006453,0.302236,0
1217,2.000579,-2.138968,0.216306,0.277683,0.899438,0.319083,0
1218,1.84125,-2.313695,0.359627,0.108148,0.226043,0.543281,0
1219,1.262629,-0.916279,0.65076,-0.021245,0.248916,0.142966,0
1220,0.619044,-0.598197,0.784726,0.114043,0.299876,-0.389976,0
1221,-0.538497,0.210936,1.10782,0.103209,-0.022278,-0.087527,0
1222,-1.360317,0.263376,1.226995,0.049719,-0.043483,0.035137,0
1223,-1.783158,-0.32411,1.190611,-0.060229,-0.136039,0.328688,0
1224,-2.028894,-0.36612,0.987054,-0.124996,-0.209186,0.345805,0
1225,-2.108855,0.367878,0.518742,-0.211926,-0.355913,0.392577,0
1226,-1.901182,1.154497,-0.038427,-0.23922,-0.430738,0.318124,0
1227,-1.90755,0.96335,-0.715479,-0.261809,-0.383114,0.25385,0
1228,-1.664335,0.388472,-1.284542,-0.221305,-0.361855,0.215012,0
1229,-1.379897,-0.187847,-1.529645,-0.105914,0.203261,-0.079231,0
1230,-0.96243,-1.676733,-1.185126,-0.066732,0.303152,-0.144077,0
1231,-1.006567,-3.114563,-0.155963,-0.033099,0.015013,-0.123678,0
1232,-1.178645,-2.961348,0.305179,-0.064388,-0.191741,-0.403828,0
1233,-0.960486,-2.014498,0.427267,-0.112357,-0.137452,-0.539864,0
1234,-0.524651,0.69414,0.405476,-0.024404,-0.156007,-0.282593,0
1235,-0.46099,3.273827,0.452821,0.100658,0.002863,-0.198487,0
1236,-0.139008,2.906686,0.611501,0.145151,0.053707,-0.446982,0
1237,0.410938,-0.406767,0.512767,0.091966,0.119987,-0.736722,0
1238,-0.082191,-1.222012,0.218742,-0.025157,0.307815,-0.712291,0
1239,0.072065,-0.07102,0.759933,-0.096997,0.154778,0.632755,0
1240,1.038023,1.310584,-0.327881,-0.15853,0.213414,1.230102,0
1241,0.720063,1.346242,-1.242409,-0.044038,0.355163,0.624346,0
1242,0.054487,-0.371378,-1.099579,0.530898,0.790016,-0.353868,0
1243,-0.224595,-1.579637,-0.266767,0.830814,0.58954,0.293751,0
1244,-0.587621,-1.003784,-0.103398,0.523648,0.474745,0.378481,0
1245,-0.853536,-0.594715,0.126024,0.427368,0.434594,0.357529,0
1246,-1.286152,-0.568218,0.268247,0.344186,0.329895,0.297093,0
1247,-1.524525,-0.709863,0.465453,0.175449,0.16831,0.266992,0
1248,-1.640376,-0.557346,0.519995,0.021846,-0.12591,0.384963,0
1249,-1.882363,0.275061,0.357005,-0.014481,-0.235479,0.223811,0
1250,-2.362978,-0.437567,0.230648,-0.185778,-0.334361,-0.092669,0
1251,-1.624332,-1.685945,0.092129,-0.242635,-0.437212,-0.000397,0
1252,-1.298665,-0.744151,-0.212315,-0.161052,-0.463485,0.023827,0
1253,-1.188208,0.023701,-0.521244,0.03261,-0.412013,-0.032517,0
1254,-1.131986,-0.158213,-0.631713,0.191587,-0.256345,-0.153097,0
1255,-1.420515,-0.516141,-0.649293,0.251802,-0.186523,-0.273589,0
1256,-1.683126,-1.027615,-0.652608,0.319518,-0.057161,-0.410228,0
1257,-1.32197,-1.117422,-0.621165,0.29362,0.080424,-0.281223,0
1258,-0.711243,-0.829581,-0.671747,0.299156,0.136676,-0.31601,0
1259,-0.318842,-1.042165,-0.597163,0.310854,0.356528,-0.445489,0
1260,-0.079466,-1.354363,-0.520315,0.343134,0.518625,-0.389755,0
1261,0.1361,-1.069762,-0.483923,0.368755,0.441235,-0.324104,0
1262,0.313348,-1.445626,-0.415973,0.431795,0.267861,-0.330533,0
1263,0.553602,-2.135604,-0.43798,0.615479,0.247623,-0.362207,0
1264,1.274621,-2.370535,-0.387777,0.664137,0.266843,-0.281316,0
1265,2.094859,-2.89737,-0.152773,0.640619,0.229639,-0.12732,0
1266,2.323445,-4.234023,0.114387,0.512623,0.084867,0.038359,0
1267,2.093929,-4.827181,0.263095,-0.006903,-0.046084,0.271106,0
1268,2.621889,-2.735817,0.015207,0.0284,0.171874,0.204347,0
1269,2.924521,-0.792185,0.143017,0.216908,0.355526,0.316783,0
1270,3.052075,0.811486,0.190991,0.358126,0.474469,0.327043,0
1271,2.77045,0.599342,0.207456,0.351023,0.676126,0.257073,0
1272,1.97005,-1.915929,-0.124992,0.088069,0.397532,0.408649,0
1273,1.436903,-4.682458,0.604424,0.064728,0.123559,0.396012,0
1274,1.461809,-5.031803,1.364552,0.502049,0.01152,0.148909,0
1275,0.938975,-3.312819,1.909899,0.536883,-0.132988,0.243474,0
1276,0.361291,-2.447927,2.171811,0.404579,-0.174053,0.244677,0
1277,0.036648,-3.710186,2.163684,0.13298,-0.30935,0.523259,0
1278,-0.002782,-4.419602,1.917558,0.155997,-0.353251,0.520518,0
1279,-0.254062,-3.967678,1.541346,0.091987,-0.384409,0.585369,0
1280,-0.435663,-2.823193,1.071798,-0.156297,-0.259854,0.431949,0
1281,-0.706937,-1.854353,0.914838,-0.285553,-0.178732,0.35373,0
1282,-0.764709,-1.257277,0.834621,-0.273385,-0.151213,0.318216,0
1283,-0.729498,-0.970083,0.645423,-0.20233,-0.095907,0.167103,0
1284,-0.781643,-0.836206,0.51136,-0.208327,-0.135202,0.055595,0
1285,-0.945595,-0.95734,0.310612,-0.163703,-0.181338,0.017384,0
1286,-1.345992,-0.997718,0.099564,0.026189,-0.250606,-0.109158,0
1287,-1.706141,-0.944068,0.04891,0.176139,-0.155592,-0.299081,0
1288,-1.403022,-1.211105,0.231899,0.287053,0.307166,-0.592038,0
1289,-0.331335,-1.785798,0.495426,0.443971,0.721388,-0.822139,0
1290,0.591721,-1.233922,1.010708,0.346523,0.351375,-0.652995,0
1291,0.45815,-0.491271,1.087872,-0.036484,-0.205615,-0.452281,0
1292,0.031361,-0.581065,1.002753,-0.220041,-0.49534,-0.16993,0
1293,-0.353792,-0.898986,0.921421,0.00849,-0.375413,0.603969,0
1294,-1.133657,0.898096,0.807917,-0.063524,-0.070295,0.684131,0
1295,-1.092921,0.912328,-0.653144,-0.237769,1.269155,-0.337199,0
1296,1.182974,-1.615559,-1.562292,0.05753,0.238499,0.731666,0
1297,0.387177,0.80562,-0.825335,0.070833,-0.473898,0.995623,0
1298,-0.387096,0.560509,-0.662718,0.041088,-0.768098,0.691419,0
1299,-0.880426,0.825704,-1.019017,0.285635,-0.50808,0.640651,0
1300,-0.806855,1.159081,-1.867099,0.39555,-0.262611,0.71357,0
1301,-0.647137,-0.326398,-1.618389,0.537525,0.591119,0.691715,0
1302,-1.569379,-2.539242,0.310419,0.771674,0.32951,0.045034,0
1303,-2.089859,-2.182697,1.107493,0.467508,0.016054,-0.017408,0
1304,-1.689667,-0.39367,1.451963,0.109813,-0.172728,0.153693,0
1305,-2.015927,1.319455,1.694248,-0.157628,-0.038963,0.013407,0
1306,-2.285817,0.853689,1.455814,-0.235019,-0.036761,-0.139865,0
1307,-2.102629,-1.122274,0.734303,-0.353132,-0.036587,-0.228461,0
1308,-1.767486,-1.684602,0.142328,-0.07409,-0.137319,-0.162577,0
1309,-1.402581,-1.411261,-0.064845,0.029801,-0.148396,-0.15577,0
1310,-1.085271,-0.687628,-0.15115,0.151556,-0.148579,-0.17294,0
1311,-0.912483,-0.258783,-0.185744,0.222299,-0.005519,-0.139395,0
1312,-1.169254,0.061674,-0.181538,0.185858,0.005504,-0.160592,0
1313,-1.319584,-0.179513,-0.208985,0.225875,-0.014901,-0.298253,0
1314,-1.248398,-0.997731,-0.2491,0.244565,-0.023234,-0.314991,0
1315,-0.919598,-1.01355,-0.307672,0.204464,0.070688,-0.285076,0
1316,-0.601273,-0.74492,-0.362408,0.195411,0.096121,-0.382821,0
1317,-0.223776,-0.804748,-0.379991,0.23396,0.100832,-0.298983,0
1318,-0.028989,-0.665886,-0.376672,0.239836,0.214032,-0.298568,0
1319,0.093775,-0.8359,-0.324322,0.219048,0.278723,-0.322836,0
1320,0.360568,-1.239726,-0.267461,0.269852,0.215889,-0.319136,0
1321,0.786569,-1.418005,-0.276008,0.262788,0.16638,-0.31456,0
1322,1.475523,-2.021997,-0.345197,0.360341,0.14573,-0.266044,0
1323,2.260414,-3.373968,-0.192704,0.463037,0.101274,-0.046324,0
1324,2.541583,-3.524765,0.24422,0.489216,0.216347,0.12815,0
1325,2.255414,-3.926108,-0.106573,0.131204,0.128535,0.344768,0
1326,2.437595,-3.26417,-0.098672,-0.226477,0.146411,0.242959,0
1327,3.503438,-1.651863,-0.625267,-0.213636,0.436068,0.302311,0
1328,3.761842,0.181036,-0.739042,0.189075,0.776173,0.163411,0
1329,3.07939,1.13947,-0.335909,0.18888,0.719374,0.44514,0
1330,2.464867,0.238178,-0.052763,0.030839,0.569657,0.472884,0
1331,2.043648,-2.686805,0.778052,0.017332,0.09157,0.399015,0
1332,1.882662,-4.164202,1.414412,0.362863,0.041109,0.216551,0
1333,1.582528,-3.566116,2.08987,0.490528,-0.003189,0.230274,0
1334,1.24484,-2.621687,1.967729,0.202561,-0.274985,0.330435,0
1335,0.822148,-2.459456,1.458231,-0.175711,-0.502589,0.463748,0
1336,0.18244,-2.306301,1.275174,-0.202555,-0.501092,0.505648,0
1337,-0.159304,-1.915295,1.026595,-0.199113,-0.483444,0.576832,0
1338,-0.489246,-1.051282,0.761468,-0.1987,-0.347128,0.429599,0
1339,-0.661681,-0.197714,0.574368,-0.181524,-0.345381,0.31047,0
1340,-0.665621,0.471758,0.458114,-0.136536,-0.326985,0.119321,0
1341,-0.858752,0.486201,0.477043,-0.061346,-0.316741,0.005965,0
1342,-1.223079,0.267376,0.371161,-0.061243,-0.251753,0.026702,0
1343,-1.448094,0.416677,0.259371,-0.064118,-0.32352,0.122847,0
1344,-1.3876,0.787316,0.226204,-0.025629,-0.386666,0.180443,0
1345,-1.40789,1.163807,0.131576,0.010272,-0.374357,0.217078,0
1346,-1.258529,1.286143,-0.221119,0.001854,-0.415909,0.265723,0
1347,-1.066629,1.376381,-0.575612,-0.061102,-0.436497,0.283616,0
1348,-1.087631,1.566455,-0.937061,-0.076405,-0.409581,0.248768,0
1349,-1.290334,1.932884,-1.287187,-0.068991,-0.141177,0.14535,0
1350,-1.47325,1.37544,-0.786754,-0.15904,0.983721,-0.16193,0
1351,-2.002427,-0.766436,0.637302,-0.175294,0.685999,-0.194204,0
1352,-2.280881,-1.691287,0.660043,-0.12426,0.085867,-0.222135,0
1353,-1.986231,-1.384668,0.4502,-0.201966,0.172005,-0.190589,0
1354,-1.16478,0.180893,0.369543,-0.29265,0.190323,-0.119305,0
1355,-0.287879,1.64555,0.432543,-0.116849,-0.386878,0.454516,0
1356,0.751724,2.156713,0.37292,-0.044981,-0.407845,0.547854,0
1357,1.263302,1.952766,0.049879,0.105212,-0.060151,0.042964,0
1358,-0.348239,0.638407,-0.201145,0.931171,0.370477,-0.781809,0
1359,0.759102,-0.69101,0.15867,0.926499,0.551661,0.067338,0
1360,0.141101,-0.394148,0.515032,0.755353,1.612064,-1.498526,0
1361,1.999605,0.403079,0.136023,-0.142089,-0.147648,1.223323,0
1362,1.481371,2.266313,0.036012,-0.164086,-0.566632,0.925395,0
1363,-0.521451,0.234758,0.192336,-0.10828,-0.313006,0.050299,0
1364,-0.859283,-1.077776,-0.018781,-0.075358,-0.027406,0.074076,0
1365,-0.244769,-0.453196,-0.100747,-0.013777,0.118269,-0.16249,0
1366,0.055908,0.775704,-0.254045,-0.003436,-0.140883,-0.082516,0
1367,0.292624,0.941232,-0.295333,-0.018264,-0.266389,-0.373716,0
1368,0.441378,0.43312,-0.430375,0.067129,-0.308709,-0.178933,0
1369,0.893858,0.253624,-0.157792,0.316025,-0.018201,-0.183171,0
1370,1.408149,-0.16996,0.362294,0.495192,0.018188,-0.213916,0
1371,2.096401,-0.990912,0.470703,0.495855,-0.127841,-0.143106,0
1372,3.011499,-2.289509,-0.048943,0.219035,0.105869,-0.13033,0
1373,2.992383,-3.277784,-0.10763,-0.031706,0.444876,0.251655,0
1374,2.67944,-3.777471,0.18138,-0.198905,0.443165,0.409416,0
1375,1.928078,-2.341173,0.489417,-0.191179,0.659726,0.321448,0
1376,1.453846,-1.637945,0.597367,-0.248963,0.291098,0.238136,0
1377,1.068178,-0.954111,0.683527,-0.192972,0.066712,0.269319,0
1378,0.481921,-0.205933,0.83657,-0.151671,-0.171201,0.277334,0
1379,-0.186296,0.97314,0.663749,-0.049485,-0.44236,0.21356,0
1380,-1.04969,1.674652,0.473085,-0.099989,-0.32496,0.127466,0
1381,-1.772057,1.61661,0.429658,-0.136735,-0.27702,0.074353,0
1382,-2.565771,1.267267,0.301716,-0.285803,-0.276443,0.064725,0
1383,-3.121292,1.267258,-0.013017,-0.438934,-0.316082,0.008198,0
1384,-3.15189,1.629145,-0.442052,-0.400933,-0.339449,-0.023152,0
1385,-2.727557,1.984535,-0.972586,-0.129434,-0.273361,-0.001637,0
1386,-1.904099,0.562438,-1.164769,0.110408,0.984295,-0.276902,0
1387,-2.06215,-2.772995,0.049765,0.217211,0.891311,-0.191938,0
1388,-2.475937,-2.372364,0.652043,0.005829,-0.174355,-0.224307,0
1389,-1.544412,-0.572538,0.76627,-0.270398,-0.659909,-0.100601,0
1390,0.740767,0.901008,0.84871,-0.167672,-0.950333,0.535329,0
1391,1.225299,2.169899,0.658189,-0.121034,-0.859168,0.442367,0
1392,0.193348,1.681046,0.460395,0.037204,0.048196,-0.543734,0
1393,-1.079355,-1.751526,0.561658,0.45395,2.152434,-0.984624,0
1394,1.373474,-0.068787,-0.132665,0.579695,1.854801,-0.244192,0
1395,1.207296,-0.10713,0.009365,0.15464,-0.123728,0.405784,0
1396,0.234039,0.355219,0.048976,0.144819,-0.363153,0.088367,0
1397,-0.095445,0.525229,0.17678,0.112408,-0.050343,0.167839,0
1398,-0.084926,1.254593,-0.01102,-0.139922,-0.126916,0.211547,0
1399,-0.38084,1.181006,-0.000174,-0.126024,-0.234621,-0.003184,0
1400,-0.397037,-0.13198,0.155219,-0.083651,-0.296061,-0.362571,0
1401,-0.113123,-0.444791,-0.185296,-0.175065,-0.149511,-0.15894,0
1402,0.431827,0.263547,-0.373609,-0.166157,-0.176152,-0.120325,0
1403,0.575429,0.479002,-0.299174,0.082533,-0.157159,-0.101406,0
1404,0.665219,-0.076687,0.058951,0.181785,-0.125829,-0.107786,0
1405,1.1102,-0.629548,0.201637,0.335772,-0.212146,-0.053387,0
1406,1.926217,-0.612468,0.018239,0.249961,0.239058,-0.081017,0
1407,2.308246,-1.406915,0.15759,0.038329,0.394962,-0.071161,0
1408,2.362159,-2.588009,0.036635,-0.138928,0.46057,-0.12594,0
1409,2.398693,-2.619746,-0.0507,-0.36251,0.941427,0.025358,0
1410,2.118854,-2.607383,0.030651,-0.213095,0.919412,0.224294,0
1411,1.752201,-2.985304,0.284947,-0.160316,0.204545,0.350474,0
1412,1.206309,-1.722103,0.279515,-0.092448,-0.175069,0.261258,0
1413,0.604463,-0.087048,0.038207,-0.075069,-0.147657,0.162194,0
1414,0.026959,0.366444,0.084867,-0.013332,0.012729,-0.120726,0
1415,-0.694974,0.726714,0.126364,-0.085204,-0.216751,0.198955,0
1416,-1.157187,1.349516,0.090291,-0.2344,-0.271258,0.346445,0
1417,-1.512714,1.318586,-0.124729,-0.275553,-0.298957,0.320107,0
1418,-1.848692,1.136173,-0.569086,-0.33769,-0.353095,0.283543,0
1419,-1.962727,1.25317,-0.956729,-0.288518,-0.308575,0.160355,0
1420,-1.930468,1.718846,-1.022262,-0.120209,-0.212777,-0.01414,0
1421,-1.944169,1.590881,-0.711341,-0.013578,-0.083205,-0.275176,0
1422,-1.923832,0.528506,-0.123384,0.121055,0.011596,-0.308545,0
1423,-2.400216,-1.021708,0.348498,0.133299,-0.041366,-0.214104,0
1424,-2.909228,-1.294618,0.572823,0.038963,-0.092413,-0.117151,0
1425,-2.392555,-1.199594,0.604084,-0.104475,-0.078981,-0.057874,0
1426,-0.986788,-1.070187,0.590237,-0.31811,-0.101479,-0.389458,0
1427,-0.156242,-0.938933,0.612962,-0.483262,-0.221726,-0.346709,0
1428,0.470775,1.793521,0.330761,-0.223114,-0.244724,0.7562,0
1429,1.578923,3.930329,-0.062683,-0.193068,-0.058104,0.570375,0
1430,1.010447,2.51126,-0.338301,0.027834,0.533547,-0.648033,0
1431,-1.209306,-0.682281,-0.317667,0.90367,0.92918,-0.545899,0
1432,0.640982,-1.029752,-0.009468,0.971406,0.867295,-0.720445,0
1433,0.915444,0.884946,0.18548,0.575882,0.755871,-0.314558,0
1434,0.721104,1.06043,0.159329,0.017717,-0.028985,0.428837,0
1435,0.09778,0.185347,0.289624,-0.017321,-0.131421,0.156237,0
1436,-0.921447,-0.600593,0.049571,-0.096154,-0.138108,0.053881,0
1437,-0.654332,-0.235232,0.091561,0.016138,0.041458,-0.108472,0
1438,-0.284026,1.212244,0.095498,-0.028956,-0.05646,-0.013865,0
1439,0.087864,1.82242,0.096245,-0.055381,-0.242265,-0.095758,0
1440,0.188553,0.770348,-0.09612,-0.033107,-0.314731,-0.407377,0
1441,0.102095,0.020701,-0.363887,-0.035632,-0.304285,-0.197156,0
1442,0.43153,0.086192,-0.244165,0.021869,-0.287497,-0.218163,0
1443,0.971099,-0.027116,0.183833,0.199177,-0.199177,-0.091887,0
1444,1.689083,-0.203424,0.494586,0.202955,-0.202809,0.038188,0
1445,2.636544,-0.284112,0.404099,0.033498,-0.198053,-0.727244,0
1446,3.077543,-2.680183,-0.177272,-0.079867,0.002872,-0.39705,0
1447,3.333887,-2.707557,-0.745877,-0.102582,0.496704,0.278037,0
1448,3.06021,-3.052769,-0.49311,-0.153606,0.760111,0.160766,0
1449,2.500838,-1.836484,0.321819,0.180859,1.02424,0.273742,0
1450,1.990855,-2.093171,1.018271,0.265458,0.857792,0.199609,0
1451,1.688241,-1.207228,1.105821,-0.188825,-0.156214,0.14546,0
1452,0.750892,-0.20996,0.810644,-0.184933,-0.573239,0.332949,0
1453,-0.240412,1.265137,0.416201,-0.212146,-0.632775,0.360528,0
1454,-1.338432,1.85837,0.334064,-0.149221,-0.233248,0.187843,0
1455,-2.111202,1.455554,0.24052,-0.212028,-0.293447,0.167525,0
1456,-2.701453,1.479542,0.081474,-0.263009,-0.336073,0.119822,0
1457,-3.180255,2.047551,-0.356296,-0.29504,-0.354972,0.105056,0
1458,-3.631815,2.632826,-1.140035,-0.24597,-0.336986,0.017048,0
1459,-3.548514,2.409583,-1.860216,-0.181408,-0.252733,-0.067902,0
1460,-1.81306,-0.857401,-0.756458,0.198699,1.208389,-0.279886,0
1461,-1.544099,-2.839841,0.331138,0.028501,-0.424309,-0.457623,0
1462,-1.441317,-1.598095,0.067482,-0.212703,-1.040658,-0.15547,0
1463,0.130188,0.026318,-0.196019,-0.0566,-1.072101,0.623789,0
1464,0.969465,1.047681,0.200572,0.000737,-0.720915,0.357386,0
1465,-0.70962,0.888499,0.703931,0.150125,0.663399,-0.292149,0
1466,0.393061,1.557976,1.490577,-0.032551,1.618191,-0.212654,0
1467,0.778295,0.724564,-0.081291,-0.090858,0.264437,0.179209,0
1468,0.265399,-0.662886,-0.586229,0.280647,0.377343,-0.176139,0
1469,0.475652,0.011031,-0.401889,0.653008,0.468425,0.089977,0
1470,0.790348,1.684468,-0.380471,-0.00072,-0.210235,0.014778,0
1471,0.139292,1.503057,-0.270487,-0.00094,-0.251559,-0.090712,0
1472,-0.459581,0.370207,0.097455,0.102186,-0.254179,-0.140959,0
1473,-0.540244,-0.094483,0.490593,0.078597,-0.197873,-0.023935,0
1474,0.037297,-0.166198,0.341963,0.049453,-0.205834,-0.087269,0
1475,0.585719,-0.323081,-0.060998,0.0157,-0.187369,-0.231903,0
1476,1.040205,-0.263239,-0.235225,-0.003086,-0.305842,-0.130448,0
1477,1.452474,-0.710733,-0.306547,0.045763,-0.318626,-0.131408,0
1478,1.955538,-1.512603,-0.280641,0.163686,-0.127842,0.045334,0
1479,2.170353,-2.217089,-0.115868,0.216397,0.194071,0.014289,0
1480,2.016843,-2.980042,-0.195011,0.057859,0.386492,0.060107,0
1481,1.790037,-2.797429,-0.111372,-0.103224,0.705637,0.136236,0
1482,1.343496,-2.082669,0.019189,-0.153734,0.93344,0.229042,0
1483,0.944443,-1.247694,0.14886,-0.275285,0.551924,0.257174,0
1484,0.631022,-0.900609,0.202841,-0.313633,0.194371,-0.060857,0
1485,0.095462,-0.672958,-0.052224,0.152898,0.086775,0.053608,0
1486,-0.562704,0.195934,0.078798,0.114146,0.128057,0.087597,0
1487,-0.851927,0.523532,0.18959,-0.059597,-0.021402,0.175043,0
1488,-1.145739,0.719296,0.239629,-0.227495,-0.274265,0.218284,0
1489,-1.511891,0.800908,0.128009,-0.257684,-0.352867,0.244997,0
1490,-1.683647,1.071854,-0.080773,-0.275466,-0.450205,0.285818,0
1491,-1.720571,1.42439,-0.297264,-0.150446,-0.436291,0.312454,0
1492,-1.618782,1.408509,-0.409764,-0.111353,-0.454463,0.268784,0
1493,-1.531989,0.991894,-0.196048,-0.086035,-0.29647,0.189535,0
1494,-1.766829,0.004507,0.508604,-0.07175,-0.162784,0.129757,0
1495,-2.470039,-0.628273,0.852743,-0.063844,-0.013644,0.030542,0
1496,-3.098253,-1.110806,0.323408,-0.262904,0.155014,-0.743861,0
1497,-2.156227,-4.53443,-0.003183,-0.337201,0.108659,-0.982976,0
1498,-0.673186,-3.89454,0.394121,-0.34916,0.069054,-0.635526,0
1499,0.337561,1.37193,0.114558,-0.31424,-0.064195,0.350458,0
1500,0.972947,5.928261,-0.206241,-0.083404,-0.112034,0.573919,0
1501,2.089979,5.622104,-0.269617,0.0102,-0.17298,0.490633,0
1502,2.007849,2.095035,-0.479315,0.026698,0.141791,0.290511,0
1503,-1.086723,-0.478154,-0.323513,0.630894,0.688993,-0.009471,0
1504,-1.929225,-2.947034,-0.499287,1.157839,0.884116,-0.586294,0
1505,0.537739,-0.236947,0.018673,0.955026,0.442823,-0.133124,0
1506,0.42138,1.772174,0.382754,0.153581,0.37586,0.101631,0
1507,0.09741,0.807485,0.284519,-0.095929,0.128671,-0.231111,0
1508,-0.188311,-0.487359,0.131399,-0.072136,-0.06599,0.041005,0
1509,-0.358204,-0.548646,-0.112196,-0.088876,-0.214677,0.179353,0
1510,-0.686417,0.054103,-0.310745,-0.090275,-0.252309,0.17323,0
1511,-0.73959,0.155126,-0.486435,0.09339,-0.318253,-0.04424,0
1512,-0.552043,0.227483,-0.362372,0.152471,-0.362044,-0.110493,0
1513,-0.478638,0.423217,-0.356769,0.205618,-0.393527,-0.269603,0
1514,-0.137072,-0.030764,-0.609106,0.195133,-0.256337,-0.288136,0
1515,-0.07364,-0.608471,-0.582285,0.375027,-0.158027,-0.060508,0
1516,-0.103454,-0.8447,-0.355728,0.475491,-0.132404,-0.120607,0
1517,-0.14537,-1.004932,-0.209469,0.580597,-0.208632,-0.367511,0
1518,0.018534,-1.874381,-0.039499,0.595993,-0.255388,-0.269484,0
1519,0.287683,-3.192167,0.003594,0.597792,-0.25527,-0.256333,0
1520,0.982384,-3.947317,0.167511,0.497577,-0.069424,-0.168017,0
1521,1.662872,-3.795892,0.603632,0.201316,0.271528,0.124115,0
1522,1.867079,-3.433353,0.872717,0.10975,0.648052,0.325499,0
1523,2.024786,-2.011921,0.913658,0.082662,1.273601,0.123433,0
1524,1.921976,0.280671,0.441053,0.071663,1.3396,0.179683,0
1525,1.821848,1.377803,0.553247,0.012016,1.219327,0.137864,0
1526,1.462319,-1.645394,0.850507,-0.125656,0.874798,0.083899,0
1527,0.350546,-4.051953,1.306229,0.300886,0.282937,0.276219,0
1528,0.262213,-3.288372,2.50211,0.454232,0.24697,0.241364,0
1529,-0.24694,-2.644074,2.725259,0.357018,0.085921,0.174617,0
1530,-0.785335,-3.964497,2.263855,-0.049644,-0.274306,0.364859,0
1531,-0.928413,-4.032334,1.504505,-0.092103,-0.380206,0.419004,0
1532,-1.052921,-3.649031,0.86328,-0.175527,-0.508467,0.569459,0
1533,-1.073568,-3.318589,0.56361,-0.391967,-0.407256,0.722909,0
1534,-1.034074,-2.818242,0.346395,-0.422262,-0.356857,0.648128,0
1535,-0.960003,-2.05768,0.293595,-0.515902,-0.376564,0.361546,0
1536,-0.924239,-1.341457,0.173286,-0.458505,-0.332049,0.234278,0
1537,-0.927404,-1.329852,-0.061759,-0.365621,-0.284204,0.123328,0
1538,-1.042263,-1.593209,-0.170115,0.051934,-0.065281,-0.208543,0
1539,-1.180133,-1.589762,-0.113398,0.168222,0.025329,-0.382566,0
1540,-1.048203,-1.642426,0.154646,0.297439,0.212771,-0.659455,0
1541,-0.408855,-1.747094,0.466894,0.432684,0.324452,-0.537066,0
1542,-0.348018,-0.714193,0.784326,0.421576,0.287865,-0.369064,0
1543,-0.109417,-0.841513,0.98164,0.029588,0.046573,-0.405855,0
1544,-0.172926,-0.682753,1.027995,-0.024236,0.175889,-0.30693,0
1545,-0.597169,0.061325,0.73459,0.077358,0.75999,0.069221,0
1546,-0.069005,-0.187893,-0.002747,-0.086262,1.07663,0.377477,0
1547,0.624506,-0.942196,-0.04928,-0.268715,-0.373878,0.667768,0
1548,-0.525353,1.175507,-0.367673,-0.260724,-0.673703,0.79773,0
1549,-0.469868,1.093188,-1.40656,0.012171,-0.460207,0.714606,0
1550,-0.016844,1.466087,-2.609896,0.299359,-0.240303,0.702937,0
1551,-0.1805,-0.213914,-3.250888,0.416654,-0.096693,0.673402,0
1552,-1.444461,-3.613523,-1.01423,0.625864,1.033045,0.497884,0
1553,-1.939804,-4.055547,0.994338,0.643827,0.187331,-0.002067,0
1554,-2.043598,-1.955545,1.264387,0.356816,-0.034446,0.109295,0
1555,-2.37661,-0.361542,1.465117,-0.048328,-0.102686,0.169855,0
1556,-2.483219,-0.642267,1.164561,-0.113111,-0.019289,0.055486,0
1557,-2.23206,-1.96432,0.692651,-0.08701,-0.074086,0.064574,0
1558,-2.319106,-2.040019,0.51802,-0.157475,-0.137009,0.026558,0
1559,-2.22596,-1.384693,0.390684,-0.18869,-0.163433,-0.065085,0
1560,-1.754412,-1.173302,0.131993,-0.181656,-0.16643,-0.09277,0
1561,-1.36718,-1.041221,-0.199825,0.105667,-0.006144,-0.173027,0
1562,-1.410078,-0.979841,-0.327322,0.230014,0.011638,-0.276991,0
1563,-1.447653,-1.095569,-0.391529,0.261316,-0.056855,-0.195837,0
1564,-0.959994,-0.924347,-0.475936,0.275984,-0.05924,-0.155375,0
1565,-0.571393,-0.492799,-0.574188,0.275789,0.181901,-0.323278,0
1566,-0.753546,-0.603208,-0.511225,0.309842,0.174119,-0.346899,0
1567,-0.374624,-1.257618,-0.490649,0.329463,0.211558,-0.284142,0
1568,-0.061245,-1.308828,-0.476644,0.26352,0.399702,-0.440893,0
1569,0.251318,-1.658798,-0.341552,0.212295,0.241062,-0.378666,0
1570,0.797393,-1.771192,-0.413438,0.353245,0.16975,-0.358598,0
1571,1.562861,-2.442672,-0.721288,0.433708,0.150031,-0.273521,0
1572,2.246079,-3.352354,-0.530547,0.591214,0.051416,-0.012248,0
1573,2.943591,-2.860556,0.019556,0.675352,0.127956,0.174838,0
1574,3.165331,-2.901581,0.495448,0.553366,0.149024,0.265633,0
1575,2.342658,-3.177749,0.4751,0.052741,0.221882,0.430001,0
1576,3.198059,-1.568023,0.242936,0.201368,0.594137,0.335547,0
1577,3.486234,0.277415,0.164604,0.518815,0.673478,0.168525,0
1578,2.862834,0.251584,-0.027725,0.460497,0.604618,0.444781,0
1579,2.355614,-1.809725,0.145494,0.040364,0.249659,0.475421,0
1580,1.414727,-4.237717,1.016907,0.239519,0.008675,0.374841,0
1581,1.207225,-4.146844,2.179703,0.542495,0.096813,0.229599,0
1582,0.839735,-3.700375,2.734175,0.401783,0.015367,0.309367,0
1583,0.340223,-4.024554,2.452296,0.229238,-0.294513,0.513526,0
1584,0.21896,-4.280572,2.113151,0.116311,-0.477356,0.612088,0
1585,-0.199432,-4.061985,1.892031,0.104516,-0.516257,0.626137,0
1586,-0.678881,-3.495612,1.5974,-0.000819,-0.343378,0.681888,0
1587,-0.999872,-2.588818,1.282075,-0.186282,-0.203272,0.55117,0
1588,-1.236831,-1.804448,1.139477,-0.201844,-0.165892,0.486287,0
1589,-1.358843,-1.079078,0.999895,-0.231887,-0.095037,0.361228,0
1590,-1.399598,-0.566989,0.846198,-0.202071,-0.148193,0.115407,0
1591,-1.56758,-0.370767,0.67279,-0.166384,-0.150326,0.043896,0
1592,-1.721204,-0.181585,0.383054,-0.079474,-0.026179,-0.072646,0
1593,-1.964017,-0.412712,0.051574,0.046194,0.120018,-0.282063,0
1594,-1.713556,-0.664099,0.096374,0.138105,0.158433,-0.36227,0
1595,-0.809197,-0.384275,0.463392,0.394776,0.264143,-0.387219,0
1596,-0.241145,0.706675,0.742631,0.478744,-0.070295,-0.236759,0
1597,-0.091468,0.937733,0.90575,0.314657,-0.187315,-0.146886,0
1598,-0.318894,0.684893,0.929055,0.151043,-0.340691,0.309423,0
1599,-0.848086,2.053587,0.635185,-0.138145,-0.047633,0.749187,0
1600,-0.327509,2.058604,-0.53623,-0.39666,0.627084,0.281752,0
1601,2.741511,-3.318191,-1.775882,-0.277921,0.35592,0.343575,0
1602,0.256805,-0.558558,-1.89505,-0.151256,-0.386675,0.677875,0
1603,-0.375146,-0.433166,-0.738468,0.27342,-0.144121,0.404362,0
1604,-0.631008,0.208848,0.101749,0.626256,0.350798,0.33131,0
1605,-0.875819,-0.443775,0.748218,0.266223,0.117986,0.13383,0
1606,-1.208929,-0.896725,0.822315,0.197222,0.106053,0.069993,0
1607,-1.287121,-0.921132,0.866666,0.0467,-0.113029,0.154496,0
1608,-1.220753,-0.230794,0.797852,-0.031669,-0.157005,0.08032,0
1609,-1.212417,0.295991,0.65623,-0.128827,-0.191741,-0.001425,0
1610,-0.966675,0.164954,0.445538,-0.338237,-0.210688,-0.114403,0
1611,-0.423484,-0.164654,0.084423,-0.221184,-0.265764,-0.167749,0
1612,-0.080259,-0.226711,-0.144904,-0.047587,-0.257715,-0.232493,0
1613,0.321574,0.066292,-0.239681,0.0398,-0.226308,-0.235032,0
1614,0.694875,0.354333,-0.400881,0.080868,-0.353538,-0.166228,0
1615,0.819,0.416827,-0.419322,0.139303,-0.416866,-0.114016,0
1616,0.7601,0.213231,-0.336151,0.042221,-0.390791,-0.120857,0
1617,0.72136,0.114505,-0.122651,0.097449,-0.234516,-0.076747,0
1618,1.023102,0.486654,0.056305,0.266414,-0.150913,-0.048607,0
1619,1.803901,1.072435,0.208423,0.309568,-0.222212,-0.057843,0
1620,2.714007,0.276125,0.355737,0.24862,-0.143363,-0.118633,0
1621,3.215545,-2.097902,0.335577,0.165022,0.182692,0.245369,0
1622,3.373548,-3.832445,0.001346,0.122108,0.412896,0.3097,0
1623,2.973891,-4.878186,0.523323,0.051518,0.453766,0.735791,0
1624,2.556916,-3.171247,0.526769,0.043357,0.591799,0.296614,0
1625,1.948832,-1.602868,0.181885,0.043578,0.739801,0.179672,0
1626,1.397453,-0.63749,0.8658,-0.214063,-0.063906,0.001051,0
1627,0.515848,0.002809,1.34593,-0.153421,-0.390667,0.052216,0
1628,-0.564544,0.696104,1.001005,-0.099555,-0.569437,0.295742,0
1629,-1.519134,1.812004,0.624371,-0.07706,-0.378664,0.349771,0
1630,-2.039751,2.163637,0.253884,-0.115022,-0.361419,0.293828,0
1631,-2.526547,1.724748,-0.1239,-0.176838,-0.343168,0.136253,0
1632,-3.011495,0.95998,-0.526891,-0.190352,-0.248775,-0.080644,0
1633,-3.434577,0.707121,-1.127726,-0.189095,-0.210718,-0.182417,0
1634,-3.175514,0.676234,-1.353408,-0.06174,0.135804,-0.20062,0
1635,-2.205655,-0.695858,-0.592847,0.066712,0.949863,-0.128544,0
1636,-1.854585,-1.72203,0.511189,0.036902,0.368531,-0.072178,0
1637,-1.75497,-0.168308,0.553691,-0.285044,-0.333028,-0.284957,0
1638,-0.398991,-0.107376,0.3911,0.102744,-0.513685,0.700711,0
1639,1.560775,1.317204,-0.052099,0.38993,-0.116531,1.192029,0
1640,0.876796,2.212416,-0.086866,1.252113,2.318352,-2.978514,0
1641,1.241895,0.508466,0.538505,0.638874,1.19698,-0.010204,0
1642,1.950098,0.568307,0.410916,-0.09719,-0.248651,0.554578,0
1643,0.250518,-1.364565,0.135534,0.162138,-0.149683,0.388792,0
1644,-1.156974,-0.882789,-0.043694,0.448886,0.405939,-0.074345,0
1645,-0.559969,1.511729,0.558817,0.391714,0.357126,-0.123657,0
1646,-0.221037,2.253469,0.188492,-0.22008,-0.137679,0.037033,0
1647,-0.137075,1.532686,0.013746,-0.120496,-0.220224,-0.291399,0
1648,-0.137872,-0.065349,-0.221357,-0.10221,-0.240008,-0.308685,0
1649,-0.168844,-0.668763,-0.343646,0.032507,-0.161113,-0.067657,0
1650,-0.051842,0.039998,-0.266825,0.099982,-0.171228,0.010068,0
1651,0.093448,0.276269,-0.071696,0.181837,-0.219776,0.013825,0
1652,0.333368,0.015592,0.173868,0.418564,-0.151227,-0.151274,0
1653,0.956547,-0.035165,0.338519,0.484477,-0.119888,-0.016071,0
1654,1.886904,-0.130677,0.240455,0.414918,-0.051629,-0.141319,0
1655,2.65138,-1.27921,0.152194,-0.14065,0.365502,0.123796,0
1656,2.667782,-2.363882,-0.072764,-0.177536,0.441613,0.256845,0
1657,2.777555,-3.257297,0.010332,-0.205889,0.508714,0.284916,0
1658,2.299205,-2.896419,0.220147,0.160419,0.602393,0.267766,0
1659,1.633782,-2.562902,0.242845,-0.044934,0.402506,0.315232,0
1660,1.12279,-1.09108,0.516196,-0.17784,0.152693,0.223062,0
1661,0.667289,-0.382081,0.49715,-0.080737,-0.066826,0.276789,0
1662,-0.004907,0.653184,0.592609,-0.050429,-0.123234,0.291307,0
1663,-0.701284,1.304879,0.46086,-0.059821,-0.249239,0.305909,0
1664,-1.234607,1.35978,0.247693,-0.135636,-0.356188,0.288874,0
1665,-1.821406,1.16128,0.047296,-0.18346,-0.457104,0.255939,0
1666,-2.230146,0.983172,-0.345232,-0.194105,-0.510734,0.206208,0
1667,-2.553526,0.986099,-0.796148,-0.167016,-0.451885,0.144115,0
1668,-2.813675,1.000839,-1.059698,-0.081539,-0.2649,-0.089015,0
1669,-2.555745,0.046417,-0.767186,-0.007894,0.242968,-0.242981,0
1670,-1.973443,-1.625683,0.229266,0.126169,0.456876,-0.246365,0
1671,-2.418537,-2.080004,1.008678,0.089327,0.241597,-0.138143,0
1672,-2.43581,-1.092984,0.614187,-0.204736,-0.000964,-0.226121,0
1673,-1.498861,-0.262528,0.44982,-0.524504,-0.186507,-0.32059,0
1674,-0.23785,0.319564,0.575387,-0.304179,-0.173325,0.456007,0
1675,1.116907,1.963568,0.129817,-0.102213,-0.261624,0.844091,0
1676,1.976382,3.139266,-0.256656,0.077776,0.08666,0.622105,0
1677,-0.059423,1.819404,-0.359983,0.75884,0.404862,-0.03518,0
1678,-0.154604,-1.613194,0.058221,0.792856,0.770129,0.01375,0
1679,-0.358584,-0.812998,0.191435,0.773111,1.660372,-0.92048,0
1680,1.462425,1.915655,0.356618,-0.047193,-0.004624,0.636848,0
1681,1.20274,2.210914,0.271105,-0.081786,-0.194326,0.42034,0
1682,-0.316664,1.010236,0.284463,0.026088,-0.078587,0.138689,0
1683,-0.536614,-0.107015,0.152967,0.020804,-0.032233,0.028429,0
1684,-0.332713,0.355721,-0.125008,-0.02893,-0.117774,-0.02441,0
1685,-0.46024,0.597348,-0.23303,-0.140799,-0.205691,0.129938,0
1686,-0.424149,0.42836,-0.361817,-0.148319,-0.329556,-0.154891,0
1687,-0.361654,-0.460944,-0.200007,0.042664,-0.289695,-0.342703,0
1688,-0.26858,-0.464115,-0.02096,0.182518,-0.297434,-0.167428,0
1689,0.10893,1.042517,0.101524,0.188268,-0.349478,-0.09627,0
1690,0.362366,1.144013,0.074322,0.17549,-0.335966,-0.168638,0
1691,0.33408,-0.301979,-0.06396,0.286577,-0.284307,-0.218492,0
1692,0.490547,-1.252119,-0.220814,0.353722,-0.239347,-0.164439,0
1693,0.808458,-1.658328,-0.145434,0.468228,-0.20826,-0.047628,0
1694,1.575248,-1.783169,0.039543,0.196616,0.268044,-0.15874,0
1695,2.160054,-2.264311,0.240797,0.021266,0.387743,-0.194946,0
1696,2.772853,-3.094394,0.034634,-0.083617,0.515115,-0.167923,0
1697,2.751493,-4.015073,-0.408716,-0.100106,0.911977,0.524327,0
1698,2.712861,-2.720198,-0.250412,-0.186925,0.711278,0.179123,0
1699,2.186728,-2.087324,0.179868,-0.084848,0.522423,0.296717,0
1700,1.586163,-1.180446,0.351836,-0.040085,0.155807,0.292449,0
1701,0.941398,-0.227247,0.433705,-0.080452,0.011652,0.211144,0
1702,0.506561,0.326281,0.647876,-0.014796,-0.079705,0.185098,0
1703,-0.267207,0.779432,0.683551,-0.007764,-0.364201,0.192788,0
1704,-1.119054,0.826423,0.593151,-0.118455,-0.407783,0.319667,0
1705,-1.712734,0.955151,0.351694,-0.181965,-0.413246,0.324515,0
1706,-2.039386,1.031234,-0.009608,-0.178772,-0.497689,0.262063,0
1707,-2.350599,1.162885,-0.427489,-0.112186,-0.453792,0.204096,0
1708,-2.818326,1.494722,-0.95461,-0.110069,-0.418389,0.143028,0
1709,-3.147764,1.385606,-1.354174,-0.08069,0.071334,-0.256404,0
1710,-2.745607,-0.299628,-0.646315,-0.066641,0.917792,-0.371652,0
1711,-2.457917,-2.366158,0.940379,-0.014331,0.845436,-0.255268,0
1712,-2.443169,-1.657001,0.740884,-0.262651,-0.076244,-0.150511,0
1713,-1.109293,-0.30832,0.373527,-0.555601,-0.449252,-0.456026,0
1714,0.43302,0.129242,0.435014,-0.207329,-0.775219,0.225443,0
1715,2.003367,2.101369,0.064237,0.20933,-0.687271,0.998109,0
1716,1.7272,2.906382,0.121097,0.175537,-0.026832,0.176444,0
1717,-2.347598,0.480893,-0.111493,1.065772,2.004956,-2.069978,0
1718,3.136274,-0.197711,-0.06484,0.363639,0.757012,0.670477,0
1719,1.313848,-0.014355,0.150795,0.235171,-0.225793,0.233801,0
1720,0.414625,-1.154302,0.156656,0.003057,-0.441304,0.229628,0
1721,-0.056639,-0.066475,-0.012536,0.07181,-0.205288,0.460822,0
1722,-0.718635,1.445462,-0.049007,0.095473,-0.127147,0.016432,0
1723,-0.966071,2.068986,0.080925,0.202652,-0.030057,-0.359212,0
1724,-0.558337,1.18117,0.104139,0.255582,0.119696,-0.539481,0
1725,-0.237318,0.024004,0.161275,0.346092,0.271137,-0.516122,0
1726,0.530071,-0.066352,0.246868,0.27913,0.158115,-0.356646,0
1727,1.475085,0.074223,-0.028722,0.004336,-0.168231,-0.249641,0
1728,2.256338,-0.87538,-0.328628,-0.088755,-0.08929,-0.199708,0
1729,2.981604,-1.984284,-0.436441,-0.042321,0.045935,0.022788,0
1730,2.81226,-3.223205,-0.554609,-0.041721,0.130237,0.550622,0
1731,2.605021,-4.027585,-0.350995,0.065127,0.088895,0.683391,0
1732,2.09311,-2.498333,-0.053155,0.090244,0.352761,0.36254,0
1733,1.506557,-0.516173,-0.263823,0.01372,0.640792,0.162392,0
1734,1.2428,-0.479284,0.0633,-0.091338,0.564635,0.285794,0
1735,0.853396,-0.407679,0.608486,-0.20428,0.069901,0.22011,0
1736,0.084727,-0.214701,0.435159,-0.129454,-0.493569,0.300628,0
1737,-0.908852,1.07365,0.123192,-0.089382,-0.431947,0.330676,0
1738,-1.638762,1.413117,-0.219899,-0.019483,-0.221046,0.312873,0
1739,-2.054253,0.823269,-0.470941,-0.12658,-0.258702,0.107849,0
1740,-2.440516,0.090679,-0.482315,-0.170012,-0.265611,-0.178081,0
1741,-2.886919,-0.633457,-0.158697,0.034922,-0.16397,-0.230544,0
1742,-3.472246,-1.018964,0.31734,0.135912,-0.060534,0.000756,0
1743,-3.386847,-0.537631,0.552329,0.060952,0.112408,0.000571,0
1744,-2.750396,-0.248713,0.476287,-0.137142,0.208537,-0.088399,0
1745,-2.02521,-0.534676,0.497743,-0.362251,0.277405,-0.28752,0
1746,-0.724301,-1.408449,0.497267,-0.64409,0.204548,-0.511071,0
1747,0.187137,-1.200302,0.401886,-0.261859,0.115285,0.309481,0
1748,0.916056,2.379592,-0.105016,0.556968,0.324272,-0.352041,0
1749,1.274842,3.214259,-0.288382,0.892823,0.597753,-0.764887,0
1750,0.235737,-0.162829,0.119953,0.752346,0.530074,0.721081,0
1751,-0.726406,-2.032286,-0.136472,0.499938,1.108984,-0.699955,0
1752,0.680128,-1.928723,-0.347902,0.518547,0.062115,0.438072,0
1753,-0.103648,0.117183,0.186658,0.442126,-0.079163,0.390667,0
1754,-0.880856,-0.034203,0.622599,0.167144,-0.02086,0.15801,0
1755,-1.535465,-0.170402,0.618201,0.052664,0.068779,0.110133,0
1756,-1.780007,-0.185667,0.651764,-0.003509,0.069501,-0.027696,0
1757,-1.56567,-0.640509,0.458359,-0.037038,-0.025654,-0.117567,0
1758,-1.200201,-1.098432,0.105781,-0.024273,-0.227837,-0.205219,0
1759,-0.857183,-1.094891,-0.011468,-0.019638,-0.266727,-0.160886,0
1760,-0.684487,-0.716005,-0.073797,-0.036558,-0.270575,-0.198857,0
1761,-0.476269,-0.520396,-0.153778,-0.020368,-0.360594,-0.191711,0
1762,-0.185469,-0.44235,-0.209531,-0.015958,-0.361621,-0.195734,0
1763,0.079559,-0.37073,-0.234477,0.025857,-0.386253,-0.089151,0
1764,0.358029,-0.335612,-0.20053,0.129692,-0.264982,-0.166827,0
1765,0.526052,-0.931687,-0.199661,0.158312,-0.280102,-0.053577,0
1766,0.551545,-1.201263,-0.206615,0.245636,-0.253239,-0.186158,0
1767,0.58476,-1.783416,-0.107361,0.285469,-0.186452,-0.184539,0
1768,0.840454,-1.623461,-0.103643,0.24466,-0.163115,0.013644,0
1769,1.069007,-1.637834,-0.170395,0.110585,-0.140003,-0.235849,0
1770,1.399778,-2.692091,-0.282101,0.273386,0.110898,0.075747,0
1771,1.908182,-2.449431,-0.400638,0.366207,0.302873,0.187342,0
1772,2.214497,-2.075856,-0.049669,0.184149,0.544432,0.108753,0
1773,1.908911,-2.339281,0.024378,-0.178921,0.89475,0.287316,0
1774,1.688207,-1.901582,-0.284304,-0.162278,0.935411,0.317239,0
1775,1.71265,-2.51776,0.072374,-0.220616,1.019403,-0.01863,0
1776,1.208216,-2.197525,0.346178,-0.047192,0.037121,-0.015517,0
1777,0.699046,0.296059,0.045665,-0.062756,-0.084529,0.178717,0
1778,0.214639,0.941408,-0.015161,-0.125859,0.274291,0.15772,0
1779,-0.24917,0.909432,0.124782,-0.044338,0.249965,0.129596,0
1780,-0.667195,0.353297,0.235806,-0.114578,0.090614,0.117161,0
1781,-0.846135,-0.188832,0.100655,-0.146421,-0.210157,0.225633,0
1782,-0.896258,-0.402962,-0.119475,-0.080794,-0.245663,0.200928,0
1783,-0.99557,-0.334903,-0.269807,0.004614,-0.264425,0.195594,0
1784,-1.04985,-0.35794,-0.322499,0.024579,-0.253064,0.184115,0
1785,-0.984824,-0.313652,-0.265486,0.045895,-0.269015,0.087637,0
1786,-0.999804,-0.073852,-0.014866,-0.051319,-0.28318,-0.027583,0
1787,-1.158781,0.125099,0.186731,-0.05864,-0.251693,-0.046078,0
1788,-1.325117,0.012345,0.289331,-0.092994,-0.219996,-0.042651,0
1789,-1.306959,-0.187058,0.322828,-0.168829,-0.152327,-0.044287,0
1790,-1.168013,-0.156548,0.298123,-0.190505,-0.135195,-0.0992,0
1791,-0.800871,0.059691,0.249135,-0.203183,-0.16682,-0.182645,0
1792,-0.258349,0.608734,0.20522,-0.22726,-0.182544,-0.152479,0
1793,0.076124,1.571007,0.099501,-0.217354,-0.201081,-0.144109,0
1794,0.14025,1.972788,0.001157,-0.18688,-0.206846,-0.143069,0
1795,0.137544,1.615898,0.009073,-0.135051,-0.179944,-0.111485,0
1796,0.111283,1.005545,0.019286,-0.121336,-0.198722,-0.124388,0
1797,0.072064,0.58597,0.017413,-0.148565,-0.126832,-0.205752,0
1798,0.076333,0.79911,-0.007399,-0.255545,0.12479,-0.383412,0
1799,0.327799,0.960175,-0.01119,-0.319829,0.450783,-0.635695,0
1800,0.728939,0.765889,0.27494,-0.095397,0.758196,-0.724476,0
1801,0.220859,1.13985,0.702473,0.091866,0.864314,-0.250254,0
1802,0.020679,5.303266,0.264178,0.362841,0.640387,0.900798,0
1803,0.986789,5.956423,-0.873976,-0.328928,-0.000724,0.74699,0
1804,0.932467,2.386988,-0.902897,-0.195408,-0.069643,0.683592,0
1805,0.091415,0.681088,-0.874539,0.368225,-0.056486,0.585497,0
1806,-1.167001,0.643585,-0.794618,0.726943,0.705619,0.766635,0
1807,-1.53205,1.579224,-0.294167,0.682008,0.509574,0.629889,0
1808,-1.722858,2.161573,0.492102,0.638715,0.321546,0.212987,0
1809,-2.267165,2.187682,0.560884,0.228207,0.08894,-0.450333,0
1810,-1.199699,1.01793,0.454471,0.114811,0.03973,-0.307582,0
1811,-1.170894,1.063453,0.500548,0.120086,-0.000997,0.042543,0
1812,-1.464604,0.681277,0.42421,-0.07965,-0.226007,-0.006438,0
1813,-1.456223,0.503924,0.280286,-0.081961,-0.273531,-0.140138,0
1814,-1.086796,0.001257,0.190576,-0.023651,-0.361448,-0.196099,0
1815,-0.734037,0.507586,0.070613,0.145831,-0.359833,-0.026905,0
1816,-0.910708,1.705913,-0.015478,0.125724,-0.344245,0.020899,0
1817,-1.126243,2.124458,-0.067726,0.067061,-0.357759,0.022106,0
1818,-1.379183,1.809188,-0.127841,0.082321,-0.192876,-0.161689,0
1819,-1.804439,1.258487,-0.303158,0.147096,-0.072799,-0.297694,0
1820,-2.391232,0.677187,-0.412265,0.239639,0.12943,-0.559882,0
1821,-1.616512,-1.346654,-0.330553,0.294339,0.278444,-0.527996,0
1822,-0.867605,0.19593,-0.196976,0.512586,0.371297,-0.599369,0
1823,0.166996,1.569675,-0.179759,0.586578,0.446045,-0.568121,0
1824,0.088247,1.08876,0.007246,0.574213,0.430305,-0.45037,0
1825,0.105357,0.097133,-0.043706,0.433986,0.290977,-0.472803,0
1826,0.46238,-0.791122,-0.13301,0.480531,0.167564,-0.501659,0
1827,1.356042,-1.455361,-0.23167,0.673496,0.212195,-0.228582,0
1828,2.433631,-1.696522,0.001561,0.634836,0.392498,0.061696,0
1829,2.925259,-1.951777,0.271309,0.033547,0.452744,0.059241,0
1830,2.785632,-2.587446,0.317082,-0.169394,0.316832,0.429536,0
1831,2.775638,-1.073411,0.25632,-0.056972,0.44584,0.268009,0
1832,3.535033,-1.001983,0.38331,-0.154742,0.859532,0.106121,0
1833,3.818628,-1.083046,-0.36877,-0.284953,0.893158,-0.013209,0
1834,3.031963,-0.317483,-1.191368,-0.321696,0.402848,0.212421,0
1835,3.4179,0.887807,-1.109031,-0.335088,0.230605,0.160848,0
1836,3.151725,-0.133885,-0.589357,-0.189589,-0.020025,0.446284,0
1837,1.853831,-3.304777,0.159805,0.19429,-0.295532,0.554671,0
1838,1.806257,-3.561283,1.474782,0.606321,-0.489316,0.38439,0
1839,1.369171,-2.314172,1.934808,0.392224,-0.60932,0.479737,0
1840,1.254103,-2.656556,1.077729,0.200154,-0.738966,0.655995,0
1841,1.0708,-2.266895,0.229917,-0.197159,-0.809346,0.659886,0
1842,0.326593,-1.824735,0.324565,-0.23678,-0.624341,0.646682,0
1843,-0.3169,-1.45034,0.494779,-0.209355,-0.575655,0.643959,0
1844,-0.817037,-0.558539,0.620466,-0.291437,-0.502888,0.472961,0
1845,-1.519376,0.80327,0.865915,-0.30426,-0.461385,0.207714,0
1846,-2.240044,1.896538,0.88405,-0.085002,-0.11475,-0.219127,0
1847,-2.212002,1.845675,0.526456,0.176728,0.621815,-1.179888,0
1848,-0.622884,0.893471,0.176649,0.327653,1.368281,-1.480626,0
1849,0.601715,-0.777024,0.216186,0.341537,0.885712,-0.816929,0
1850,0.435601,-0.235049,0.688622,0.194426,0.126193,-0.206605,0
1851,0.083829,-0.567557,0.762434,-0.127286,-0.258632,-0.40475,0
1852,0.215643,-1.126422,0.547222,-0.311307,-0.121387,-0.118492,0
1853,-1.363023,1.289925,0.50853,-0.172193,0.298145,1.216862,0
1854,-1.297315,3.18178,-0.593704,-0.473285,1.349514,-0.114901,0
1855,2.058206,-0.618955,-0.614534,-0.649747,-0.023839,0.908991,0
1856,-0.080153,1.77648,-0.533195,-0.609724,-0.96305,0.668005,0
1857,-0.932585,1.971493,-0.343915,-0.185763,-0.456062,0.718615,0
1858,-1.118898,3.402803,-1.141807,-0.027346,-0.097477,0.903883,0
1859,-1.479656,2.633634,-1.883619,0.183518,0.149429,0.820976,0
1860,-2.226621,1.912815,-1.862299,0.723435,0.896342,0.373513,0
1861,-0.771305,3.680144,0.858885,0.7928,0.631896,-0.279505,0
1862,-1.904875,3.981311,0.320743,0.584508,0.042666,-0.461803,0
1863,-1.975499,0.193208,0.377447,0.098739,-0.286629,0.056315,0
1864,-1.938632,-0.926048,0.790404,0.011973,-0.242986,0.102501,0
1865,-1.801008,-0.338109,0.428485,-0.102199,-0.267671,0.11578,0
1866,-1.383544,0.133708,0.358157,-0.072793,-0.280618,0.063484,0
1867,-1.197813,1.302887,0.320569,-0.117675,-0.123875,-0.191614,0
1868,-1.23052,1.711488,-0.06688,-0.059688,-0.076904,-0.379832,0
1869,-1.17295,1.321971,-0.210188,0.018567,-0.053752,-0.285777,0
1870,-1.297567,1.04673,-0.534377,0.009562,-0.014465,-0.287692,0
1871,-1.180579,1.02042,-0.716192,0.167657,0.100658,-0.330684,0
1872,-0.954534,1.284547,-0.89655,0.220313,0.074728,-0.392137,0
1873,-0.309338,1.009495,-0.870326,0.573184,0.146922,-0.256872,0
1874,0.002046,1.230032,-0.614197,0.741343,0.118568,-0.227902,0
1875,0.081542,0.881609,-0.131427,0.80836,0.074847,-0.148061,0
1876,-0.050556,0.313981,0.208072,0.748137,0.119785,-0.209789,0
1877,0.039315,-0.240575,0.549105,0.26393,0.359854,-0.250181,0
1878,0.582785,-0.789126,0.860184,0.224127,0.511767,-0.072144,0
